Timestamp,Power,Ch.0,Ch.1,Ch.2,Ch.3,Ch.4,Ch.5,Ch.6,Ch.7,Ch.8,Ch.9,Ch.10,Ch.11,Ch.12,Ch.13,timestamp,elbow_angle,wrist_angle,shoulder_angle,hand_x,hand_y,hand_z,wrist_x,wrist_y,wrist_z,elbow_x,elbow_y,elbow_z,shoulder_x,shoulder_y,shoulder_z,velocity_x,velocity_y,velocity_z,acceleration_x,acceleration_y,acceleration_z
2025-03-04 16:41:32,0,155,113,141,125,121,7,128,37,10,10,128,38,127,11,2025-03-04 16:36:01.981,73.97531182289605,0,66.83982883807903,0,0,0,790,533,0.2439532279968261,691,796,-0.2028065025806427,347,693,-0.3015167117118835,0,0,0,0,0,0
2025-03-04 16:41:32,0,155,115,140,122,121,8,128,36,10,11,128,37,127,11,2025-03-04 16:36:02.051,73.92044249502307,0,66.8942122708015,0,0,0,790,535,0.2058874815702438,691,796,-0.200823962688446,347,693,-0.2874421775341034,0,0,0,0,0,0
2025-03-04 16:41:32,0,155,114,140,125,121,9,127,36,10,13,129,36,127,11,2025-03-04 16:36:02.122,73.75375419710146,0,66.98046331143303,0,0,0,790,535,0.2254513800144195,692,796,-0.2020975202322006,350,693,-0.2915650904178619,0,0,0,0,0,0
2025-03-04 16:41:32,0,155,115,140,126,121,9,127,37,10,10,129,37,127,11,2025-03-04 16:36:02.122,73.75375419710146,0,66.98046331143303,0,0,0,790,535,0.2254513800144195,692,796,-0.2020975202322006,350,693,-0.2915650904178619,0,0,0,0,0,0
2025-03-04 16:41:32,0,155,114,141,123,121,7,127,37,10,13,129,35,127,11,2025-03-04 16:36:02.176,74.2021278889737,0,67.41011190174551,0,0,0,791,535,0.2251171618700027,693,795,-0.2049811780452728,350,694,-0.2960313856601715,0,0,0,0,0,0
2025-03-04 16:41:32,0,155,114,140,123,121,10,127,38,10,14,130,39,127,11,2025-03-04 16:36:02.252,74.1207754173522,0,67.25014651755733,0,0,0,791,536,0.3428463339805603,693,795,-0.1548500061035156,352,694,-0.285345047712326,0,0,0,0,0,0
2025-03-04 16:41:32,0,155,115,140,126,121,8,127,37,10,12,130,38,127,11,2025-03-04 16:36:02.252,74.1207754173522,0,67.25014651755733,0,0,0,791,536,0.3428463339805603,693,795,-0.1548500061035156,352,694,-0.285345047712326,0,0,0,0,0,0
2025-03-04 16:41:32,0,155,115,140,126,121,9,126,38,10,12,130,38,126,11,2025-03-04 16:36:02.317,74.21320280385518,0,67.21414442047593,0,0,0,790,538,0.3391613066196441,693,796,-0.1497063785791397,352,695,-0.2803064882755279,0,0,0,0,0,0
2025-03-04 16:41:32,0,155,115,140,126,121,9,126,36,10,12,130,36,126,11,2025-03-04 16:36:02.385,73.99495294430687,0,66.97595192300335,0,0,0,790,539,0.306713730096817,693,797,-0.159376636147499,351,695,-0.2749001681804657,0,0,0,0,0,0
2025-03-04 16:41:32,0,155,116,140,126,121,8,126,39,10,11,130,36,126,11,2025-03-04 16:36:02.385,73.99495294430687,0,66.97595192300335,0,0,0,790,539,0.306713730096817,693,797,-0.159376636147499,351,695,-0.2749001681804657,0,0,0,0,0,0
2025-03-04 16:41:32,0,155,114,140,127,121,8,126,39,10,12,130,38,126,11,2025-03-04 16:36:02.447,73.57800502135242,0,66.7685243772294,0,0,0,789,540,0.1370444893836975,692,798,-0.2122775763273239,351,694,-0.2778641581535339,0,0,0,0,0,0
2025-03-04 16:41:32,0,155,114,140,125,121,9,126,36,10,11,132,38,126,11,2025-03-04 16:36:02.521,73.33328636281566,0,66.48858852273682,0,0,0,789,539,0.1797320395708084,692,798,-0.2110529094934463,352,694,-0.2805986106395721,0,0,0,0,0,0
2025-03-04 16:41:32,0,155,115,141,126,121,8,126,37,11,13,130,36,126,11,2025-03-04 16:36:02.521,73.33328636281566,0,66.48858852273682,0,0,0,789,539,0.1797320395708084,692,798,-0.2110529094934463,352,694,-0.2805986106395721,0,0,0,0,0,0
2025-03-04 16:41:32,0,155,113,140,126,121,8,126,37,11,13,130,35,126,11,2025-03-04 16:36:02.580,73.15176612971366,0,65.91689446119156,0,0,0,789,539,0.0909183844923973,688,799,-0.2282318025827407,352,693,-0.2825924456119537,0,0,0,0,0,0
2025-03-04 16:41:32,0,151,111,140,118,120,9,127,38,11,11,130,36,125,11,2025-03-04 16:36:02.655,73.1167667746412,0,65.16265001381548,0,0,0,789,542,0.1353208422660827,683,800,-0.227936789393425,353,693,-0.2947829067707062,0,0,0,0,0,0
2025-03-04 16:41:33,0,155,110,141,127,121,10,127,33,11,13,130,35,125,11,2025-03-04 16:36:02.981,73.2541483031682,0,63.54156944995768,0,0,0,783,567,0.1215298250317573,673,804,-0.2393124997615814,347,692,-0.3235190808773041,0,0,0,0,0,0
2025-03-04 16:41:33,0,159,116,141,125,116,8,117,35,11,14,135,38,122,11,2025-03-04 16:36:03.054,73.15857215673378,0,63.60100779280581,0,0,0,782,568,0.1895541548728943,673,804,-0.2367749810218811,346,692,-0.3270366489887237,0,0,0,0,0,0
2025-03-04 16:41:33,0,157,111,138,129,119,7,130,40,10,12,129,36,131,11,2025-03-04 16:36:03.114,73.01701929246511,0,63.31315843203531,0,0,0,782,568,0.2312467098236084,673,805,-0.220512717962265,346,692,-0.3259589374065399,0,0,0,0,0,0
2025-03-04 16:41:33,0,149,114,137,127,125,9,127,36,10,12,131,39,123,11,2025-03-04 16:36:03.114,73.01701929246511,0,63.31315843203531,0,0,0,782,568,0.2312467098236084,673,805,-0.220512717962265,346,692,-0.3259589374065399,0,0,0,0,0,0
2025-03-04 16:41:33,0,134,116,148,121,121,9,124,35,11,13,126,35,124,11,2025-03-04 16:36:03.189,72.98672126445014,0,63.37627031779916,0,0,0,782,568,0.1834911853075027,673,805,-0.2293714433908462,346,692,-0.3247815072536468,0,0,0,0,0,0
2025-03-04 16:41:33,0,133,112,139,128,120,9,131,39,9,11,130,36,130,12,2025-03-04 16:36:03.189,72.98672126445014,0,63.37627031779916,0,0,0,782,568,0.1834911853075027,673,805,-0.2293714433908462,346,692,-0.3247815072536468,0,0,0,0,0,0
2025-03-04 16:41:33,0,151,113,141,131,126,10,124,33,11,11,133,35,119,11,2025-03-04 16:36:03.294,72.92590111695314,0,63.38326958719622,0,0,0,782,566,0.1810351461172104,674,805,-0.2290487736463546,346,692,-0.3220299780368805,0,0,0,0,0,0
2025-03-04 16:41:33,0,131,111,141,129,119,8,130,41,10,11,129,34,131,11,2025-03-04 16:36:03.294,72.92590111695314,0,63.38326958719622,0,0,0,782,566,0.1810351461172104,674,805,-0.2290487736463546,346,692,-0.3220299780368805,0,0,0,0,0,0
2025-03-04 16:41:33,0,153,115,138,127,123,7,123,38,11,11,134,40,122,11,2025-03-04 16:36:03.388,72.86711760737627,0,63.3175473167326,0,0,0,782,566,0.2233328223228454,674,805,-0.2129396945238113,346,692,-0.3167948126792907,0,0,0,0,0,0
2025-03-04 16:41:33,0,158,111,140,131,118,9,130,42,10,13,127,34,130,11,2025-03-04 16:36:03.388,72.86711760737627,0,63.3175473167326,0,0,0,782,566,0.2233328223228454,674,805,-0.2129396945238113,346,692,-0.3167948126792907,0,0,0,0,0,0
2025-03-04 16:41:33,0,156,113,145,130,116,8,125,36,13,11,126,33,125,11,2025-03-04 16:36:03.446,73.05021026942875,0,63.48485149261975,0,0,0,782,566,0.100804291665554,674,805,-0.2673575282096863,344,692,-0.3334110975265503,0,0,0,0,0,0
2025-03-04 16:41:33,0,159,114,138,129,120,9,129,37,10,11,132,37,124,11,2025-03-04 16:36:03.525,73.02525341202235,0,63.31810601819351,0,0,0,782,567,0.2218885123729705,674,805,-0.2406322062015533,344,692,-0.3326414227485657,0,0,0,0,0,0
2025-03-04 16:41:33,0,132,113,150,129,122,8,126,39,11,13,130,36,125,11,2025-03-04 16:36:03.525,73.02525341202235,0,63.31810601819351,0,0,0,782,567,0.2218885123729705,674,805,-0.2406322062015533,344,692,-0.3326414227485657,0,0,0,0,0,0
2025-03-04 16:41:33,0,133,114,144,129,120,9,127,37,11,11,130,36,125,11,2025-03-04 16:36:03.617,73.07942163051811,0,63.30746075432531,0,0,0,782,567,0.1200245842337608,674,805,-0.2860948145389557,344,692,-0.3560570478439331,0,0,0,0,0,0
2025-03-04 16:41:33,0,155,114,141,127,119,8,128,39,12,12,128,36,125,11,2025-03-04 16:36:03.617,73.07942163051811,0,63.30746075432531,0,0,0,782,567,0.1200245842337608,674,805,-0.2860948145389557,344,692,-0.3560570478439331,0,0,0,0,0,0
2025-03-04 16:41:33,0,155,114,142,128,119,8,128,39,12,11,129,35,125,11,2025-03-04 16:36:03.684,73.07697963561704,0,63.49659881586508,0,0,0,783,563,0.139470025897026,675,805,-0.2715834379196167,344,693,-0.3520900905132293,0,0,0,0,0,0
2025-03-04 16:41:33,0,155,113,140,130,119,10,128,39,11,12,128,36,125,11,2025-03-04 16:36:03.752,72.93966166272254,0,64.26207063479893,0,0,0,787,548,0.1502906680107116,681,803,-0.2714419662952423,344,693,-0.3555495142936706,0,0,0,0,0,0
2025-03-04 16:41:33,0,155,114,140,129,120,7,130,39,11,11,128,34,125,11,2025-03-04 16:36:03.752,72.93966166272254,0,64.26207063479893,0,0,0,787,548,0.1502906680107116,681,803,-0.2714419662952423,344,693,-0.3555495142936706,0,0,0,0,0,0
2025-03-04 16:41:33,0,155,114,139,129,120,10,130,38,11,11,128,35,125,11,2025-03-04 16:36:03.816,73.182135535652,0,64.59161035386879,0,0,0,790,543,0.1323836892843246,682,803,-0.2685571610927582,344,693,-0.3526165187358856,0,0,0,0,0,0
2025-03-04 16:41:33,0,154,114,139,127,120,8,130,39,11,11,128,36,125,11,2025-03-04 16:36:03.889,73.65252860818575,0,65.38151603903778,0,0,0,791,539,0.1424748450517654,686,801,-0.2676734924316406,344,694,-0.3493841886520386,0,0,0,0,0,0
2025-03-04 16:41:33,0,155,114,139,128,120,8,131,38,11,12,128,36,125,11,2025-03-04 16:36:03.889,73.65252860818575,0,65.38151603903778,0,0,0,791,539,0.1424748450517654,686,801,-0.2676734924316406,344,694,-0.3493841886520386,0,0,0,0,0,0
2025-03-04 16:41:33,0,155,114,139,129,120,6,131,38,11,11,128,36,125,11,2025-03-04 16:36:03.944,73.7875375998644,0,66.15104426384464,0,0,0,793,532,0.2357218265533447,692,799,-0.220755472779274,346,694,-0.3311792612075805,0,0,0,0,0,0
2025-03-04 16:41:34,0,155,115,139,128,120,8,131,37,11,12,128,36,125,11,2025-03-04 16:36:04.024,73.79089340555927,0,66.10856942082631,0,0,0,793,530,0.2169293910264969,693,798,-0.2249913066625595,346,695,-0.3312671780586242,0,0,0,0,0,0
2025-03-04 16:41:34,0,155,114,139,127,120,8,131,39,11,12,128,37,125,11,2025-03-04 16:36:04.024,73.79089340555927,0,66.10856942082631,0,0,0,793,530,0.2169293910264969,693,798,-0.2249913066625595,346,695,-0.3312671780586242,0,0,0,0,0,0
2025-03-04 16:41:34,0,155,114,138,128,120,9,131,39,11,12,128,36,125,11,2025-03-04 16:36:04.124,74.34944974111852,0,66.61445377713713,0,0,0,793,530,0.2393016964197158,694,798,-0.2265408784151077,344,696,-0.3313264548778534,0,0,0,0,0,0
2025-03-04 16:41:34,0,155,115,138,127,121,10,131,38,11,11,128,36,125,11,2025-03-04 16:36:04.124,74.34944974111852,0,66.61445377713713,0,0,0,793,530,0.2393016964197158,694,798,-0.2265408784151077,344,696,-0.3313264548778534,0,0,0,0,0,0
2025-03-04 16:41:34,0,155,115,138,128,121,9,131,38,11,12,128,37,125,11,2025-03-04 16:36:04.178,74.07951831418617,0,66.21265159577399,0,0,0,793,533,0.2771686911582947,694,798,-0.2088136225938797,348,696,-0.3293095529079437,0,0,0,0,0,0
2025-03-04 16:41:34,0,155,114,138,129,121,7,131,38,11,12,128,36,125,11,2025-03-04 16:36:04.253,74.14109211248054,0,66.40893684741853,0,0,0,793,534,0.2972083389759063,695,798,-0.1975521892309188,350,696,-0.3265630900859833,0,0,0,0,0,0
2025-03-04 16:41:34,0,155,113,138,127,121,6,131,38,11,12,128,36,125,12,2025-03-04 16:36:04.253,74.14109211248054,0,66.40893684741853,0,0,0,793,534,0.2972083389759063,695,798,-0.1975521892309188,350,696,-0.3265630900859833,0,0,0,0,0,0
2025-03-04 16:41:34,0,155,111,139,128,121,10,131,37,11,11,128,38,125,11,2025-03-04 16:36:04.315,73.89534827566352,0,66.34060832734116,0,0,0,793,534,0.2937988340854645,696,797,-0.2006291896104812,353,696,-0.3267206251621246,0,0,0,0,0,0
2025-03-04 16:41:34,0,155,114,139,127,122,8,131,39,11,12,128,35,125,12,2025-03-04 16:36:04.388,73.92384033846002,0,66.3649584558688,0,0,0,793,536,0.225018635392189,696,798,-0.2502597868442535,353,696,-0.3556610941886902,0,0,0,0,0,0
2025-03-04 16:41:34,0,155,114,139,127,122,10,131,39,11,11,128,38,124,12,2025-03-04 16:36:04.388,73.92384033846002,0,66.3649584558688,0,0,0,793,536,0.225018635392189,696,798,-0.2502597868442535,353,696,-0.3556610941886902,0,0,0,0,0,0
2025-03-04 16:41:34,0,154,112,148,132,112,10,127,34,11,16,128,38,125,12,2025-03-04 16:36:04.448,74.05484837264731,0,66.47119291856012,0,0,0,793,536,0.2401127070188522,696,797,-0.2475827634334564,352,696,-0.3519755601882934,0,0,0,0,0,0
2025-03-04 16:41:34,0,156,113,139,127,122,8,131,39,11,11,128,36,125,11,2025-03-04 16:36:04.522,74.15128770759833,0,66.61887830825711,0,0,0,793,537,0.2504193484783172,696,797,-0.243197426199913,353,696,-0.3505672514438629,0,0,0,0,0,0
2025-03-04 16:41:34,0,156,113,140,127,122,9,131,37,11,11,128,36,124,11,2025-03-04 16:36:04.522,74.15128770759833,0,66.61887830825711,0,0,0,793,537,0.2504193484783172,696,797,-0.243197426199913,353,696,-0.3505672514438629,0,0,0,0,0,0
2025-03-04 16:41:34,0,133,115,142,126,121,8,131,37,11,11,128,36,125,11,2025-03-04 16:36:04.580,73.92341700301634,0,66.67287665625332,0,0,0,793,537,0.2517355680465698,697,797,-0.2338395565748214,355,696,-0.3487096428871155,0,0,0,0,0,0
2025-03-04 16:41:34,0,136,114,145,129,121,10,130,38,11,11,128,37,125,11,2025-03-04 16:36:04.655,73.8991808234765,0,66.66316601320872,0,0,0,793,537,0.2513784766197204,697,797,-0.2335182130336761,356,696,-0.3473165333271026,0,0,0,0,0,0
2025-03-04 16:41:34,0,136,114,147,128,121,8,130,38,11,11,128,35,125,11,2025-03-04 16:36:04.655,73.8991808234765,0,66.66316601320872,0,0,0,793,537,0.2513784766197204,697,797,-0.2335182130336761,356,696,-0.3473165333271026,0,0,0,0,0,0
2025-03-04 16:41:34,0,138,113,148,129,122,8,130,39,11,11,128,36,125,11,2025-03-04 16:36:04.716,74.13803301956798,0,66.90358707701597,0,0,0,793,538,0.2563053071498871,698,797,-0.236154556274414,356,697,-0.3504785895347595,0,0,0,0,0,0
2025-03-04 16:41:34,0,136,116,147,128,122,9,130,38,11,12,128,37,125,11,2025-03-04 16:36:04.786,74.15226412489535,0,66.87439991115696,0,0,0,793,538,0.2526360154151916,698,797,-0.2392497211694717,357,697,-0.3524565100669861,0,0,0,0,0,0
2025-03-04 16:41:34,0,136,114,148,127,122,8,130,40,11,12,128,35,125,11,2025-03-04 16:36:04.848,74.5180952759986,0,67.16998347718729,0,0,0,793,538,0.1959711760282516,698,797,-0.275689959526062,356,699,-0.3723016083240509,0,0,0,0,0,0
2025-03-04 16:41:34,0,136,114,148,128,122,9,130,39,11,11,128,35,125,11,2025-03-04 16:36:04.848,74.5180952759986,0,67.16998347718729,0,0,0,793,538,0.1959711760282516,698,797,-0.275689959526062,356,699,-0.3723016083240509,0,0,0,0,0,0
2025-03-04 16:41:34,0,131,114,145,128,123,9,130,38,11,13,128,37,125,12,2025-03-04 16:36:04.922,74.60323801897675,0,67.23052236703887,0,0,0,793,537,0.2052468359470367,698,797,-0.2685607969760895,355,699,-0.3678615689277649,0,0,0,0,0,0
2025-03-04 16:41:34,0,136,111,147,128,122,8,130,38,11,10,128,38,125,11,2025-03-04 16:36:04.976,74.71411398516186,0,67.4882010585997,0,0,0,793,534,0.1912758350372314,699,796,-0.273739755153656,355,699,-0.3727855384349823,0,0,0,0,0,0
2025-03-04 16:41:35,0,132,116,146,126,123,7,130,38,11,10,128,35,124,11,2025-03-04 16:36:04.976,74.71411398516186,0,67.4882010585997,0,0,0,793,534,0.1912758350372314,699,796,-0.273739755153656,355,699,-0.3727855384349823,0,0,0,0,0,0
2025-03-04 16:41:35,0,159,117,146,129,122,9,128,38,10,11,126,35,127,11,2025-03-04 16:36:04.976,74.71411398516186,0,67.4882010585997,0,0,0,793,534,0.1912758350372314,699,796,-0.273739755153656,355,699,-0.3727855384349823,0,0,0,0,0,0
2025-03-04 16:41:35,0,136,114,148,128,123,8,130,37,11,10,128,36,125,12,2025-03-04 16:36:05.059,74.695790894014,0,67.69436704374269,0,0,0,794,526,0.0445489510893821,700,796,-0.3331857621669769,352,699,-0.3898764252662658,0,0,0,0,0,0
2025-03-04 16:41:35,0,131,113,146,127,124,7,130,36,11,11,128,35,123,12,2025-03-04 16:36:05.059,74.695790894014,0,67.69436704374269,0,0,0,794,526,0.0445489510893821,700,796,-0.3331857621669769,352,699,-0.3898764252662658,0,0,0,0,0,0
2025-03-04 16:41:35,0,155,114,142,128,124,9,129,39,11,13,128,36,123,12,2025-03-04 16:36:05.154,75.15847445050001,0,68.18437583829758,0,0,0,795,522,0.1186830699443817,700,794,-0.307816207408905,352,699,-0.3834708034992218,0,0,0,0,0,0
2025-03-04 16:41:35,0,134,112,143,126,124,9,129,37,11,12,128,36,123,11,2025-03-04 16:36:05.154,75.15847445050001,0,68.18437583829758,0,0,0,795,522,0.1186830699443817,700,794,-0.307816207408905,352,699,-0.3834708034992218,0,0,0,0,0,0
2025-03-04 16:41:35,0,154,111,143,127,124,8,129,38,11,13,127,36,123,11,2025-03-04 16:36:05.213,75.15913553538577,0,68.01353562647635,0,0,0,795,522,0.141934648156166,700,794,-0.2888996005058288,352,699,-0.3771116137504577,0,0,0,0,0,0
2025-03-04 16:41:35,0,154,114,143,126,123,9,129,39,11,13,126,33,124,11,2025-03-04 16:36:05.290,75.39402718510625,0,67.84797681007896,0,0,0,795,529,0.1745403259992599,699,794,-0.2846542596817016,353,699,-0.3752590119838714,0,0,0,0,0,0
2025-03-04 16:41:35,0,154,112,143,126,123,7,129,37,11,12,126,35,124,11,2025-03-04 16:36:05.290,75.39402718510625,0,67.84797681007896,0,0,0,795,529,0.1745403259992599,699,794,-0.2846542596817016,353,699,-0.3752590119838714,0,0,0,0,0,0
2025-03-04 16:41:35,0,153,114,143,128,123,10,129,37,11,11,126,35,125,11,2025-03-04 16:36:05.346,75.52833522858259,0,67.53081021010044,0,0,0,795,538,0.2414848506450653,698,794,-0.2485855519771576,351,697,-0.3590873777866363,0,0,0,0,0,0
2025-03-04 16:41:35,0,153,115,143,129,123,7,129,37,11,14,126,37,126,12,2025-03-04 16:36:05.422,75.3595390577026,0,67.39003705795196,0,0,0,796,536,0.2281799018383026,699,794,-0.2346071898937225,352,696,-0.342192679643631,0,0,0,0,0,0
2025-03-04 16:41:35,0,154,114,143,126,123,8,129,38,11,14,126,36,126,11,2025-03-04 16:36:05.481,74.98929853885895,0,67.05767351436445,0,0,0,796,533,0.1317046731710434,699,793,-0.2402266412973404,353,694,-0.337802529335022,0,0,0,0,0,0
2025-03-04 16:41:35,0,154,115,144,128,123,9,129,36,11,12,126,35,126,12,2025-03-04 16:36:05.481,74.98929853885895,0,67.05767351436445,0,0,0,796,533,0.1317046731710434,699,793,-0.2402266412973404,353,694,-0.337802529335022,0,0,0,0,0,0
2025-03-04 16:41:35,0,154,113,143,128,123,8,128,37,11,13,126,36,127,11,2025-03-04 16:36:05.554,75.04266348587564,0,66.5335125880639,0,0,0,796,537,0.1512035876512527,696,793,-0.2430381178855896,352,693,-0.3355503678321838,0,0,0,0,0,0
2025-03-04 16:41:35,0,154,116,143,126,123,10,129,38,11,12,126,36,127,11,2025-03-04 16:36:05.616,75.10650850838051,0,66.64587575708988,0,0,0,797,536,0.1395767629146576,696,792,-0.2440989762544632,352,692,-0.3339878618717193,0,0,0,0,0,0
2025-03-04 16:41:35,0,154,115,143,127,122,9,129,37,11,10,126,37,127,11,2025-03-04 16:36:05.616,75.10650850838051,0,66.64587575708988,0,0,0,797,536,0.1395767629146576,696,792,-0.2440989762544632,352,692,-0.3339878618717193,0,0,0,0,0,0
2025-03-04 16:41:35,0,155,117,143,128,122,8,128,37,11,13,126,36,127,11,2025-03-04 16:36:05.689,74.87905733471162,0,66.4727160573462,0,0,0,801,535,0.0746092945337295,698,792,-0.2543566524982452,357,691,-0.3240198791027069,0,0,0,0,0,0
2025-03-04 16:41:35,0,155,116,144,128,122,7,128,38,11,13,126,36,127,12,2025-03-04 16:36:05.746,74.96934996576209,0,66.09941363581642,0,0,0,811,533,0.0231728740036487,703,793,-0.2585504353046417,363,691,-0.305141270160675,0,0,0,0,0,0
2025-03-04 16:41:35,0,156,116,143,129,122,8,129,38,10,14,126,37,127,11,2025-03-04 16:36:05.746,74.96934996576209,0,66.09941363581642,0,0,0,811,533,0.0231728740036487,703,793,-0.2585504353046417,363,691,-0.305141270160675,0,0,0,0,0,0
2025-03-04 16:41:35,0,157,115,145,129,122,9,128,38,11,14,126,35,127,11,2025-03-04 16:36:05.824,75.96199181232237,0,67.31770452632061,0,0,0,823,524,0.0416131690144538,713,790,-0.2515244781970978,370,691,-0.2792681157588959,0,0,0,0,0,0
2025-03-04 16:41:35,0,156,116,143,129,122,9,129,37,10,13,126,37,127,11,2025-03-04 16:36:05.880,76.64240110969996,0,67.94437392964522,0,0,0,838,516,0.1446524262428283,723,790,-0.2164206206798553,373,691,-0.2850590944290161,0,0,0,0,0,0
2025-03-04 16:41:35,0,156,115,143,128,122,8,129,39,10,13,126,37,127,11,2025-03-04 16:36:05.880,76.64240110969996,0,67.94437392964522,0,0,0,838,516,0.1446524262428283,723,790,-0.2164206206798553,373,691,-0.2850590944290161,0,0,0,0,0,0
2025-03-04 16:41:35,0,158,115,145,130,122,7,128,37,10,13,126,36,127,11,2025-03-04 16:36:05.955,76.64013091902423,0,68.62152400718381,0,0,0,847,515,0.0394130870699882,734,787,-0.2229684740304947,392,691,-0.2755793631076813,0,0,0,0,0,0
2025-03-04 16:41:36,0,159,117,145,128,122,10,128,38,10,12,126,38,127,11,2025-03-04 16:36:06.017,76.6489312204012,0,68.37575852232267,0,0,0,857,514,0.0660399422049522,739,786,-0.2350226491689682,406,691,-0.2921958267688751,0,0,0,0,0,0
2025-03-04 16:41:36,0,159,116,144,127,122,8,129,37,10,12,127,38,127,11,2025-03-04 16:36:06.017,76.6489312204012,0,68.37575852232267,0,0,0,857,514,0.0660399422049522,739,786,-0.2350226491689682,406,691,-0.2921958267688751,0,0,0,0,0,0
2025-03-04 16:41:36,0,158,116,143,125,122,9,129,37,10,12,129,38,127,11,2025-03-04 16:36:06.081,75.77876229235649,0,68.83277158723456,0,0,0,862,508,0.1233211457729339,751,783,-0.2096648514270782,424,689,-0.2893185913562774,0,0,0,0,0,0
2025-03-04 16:41:36,0,157,116,143,125,122,7,129,38,10,14,129,38,127,11,2025-03-04 16:36:06.152,74.08923223725424,0,70.16883300709162,0,0,0,859,497,0.0230347104370594,772,781,-0.2634917199611664,429,688,-0.3099651038646698,0,0,0,0,0,0
2025-03-04 16:41:36,0,157,116,143,126,122,10,129,37,10,11,129,38,127,11,2025-03-04 16:36:06.152,74.08923223725424,0,70.16883300709162,0,0,0,859,497,0.0230347104370594,772,781,-0.2634917199611664,429,688,-0.3099651038646698,0,0,0,0,0,0
2025-03-04 16:41:36,0,157,115,143,125,122,8,129,37,10,12,130,37,127,11,2025-03-04 16:36:06.219,70.67453618596622,0,69.66432323752018,0,0,0,857,480,0.0218158364295959,790,781,-0.2630790472030639,444,685,-0.2935928404331207,0,0,0,0,0,0
2025-03-04 16:41:36,0,157,116,144,125,122,9,128,36,10,13,130,38,128,11,2025-03-04 16:36:06.285,67.74156301183487,0,69.78809940493072,0,0,0,842,459,0.0282005369663238,799,781,-0.275269478559494,450,683,-0.3047003149986267,0,0,0,0,0,0
2025-03-04 16:41:36,0,157,116,145,125,121,9,128,37,9,11,130,37,127,11,2025-03-04 16:36:06.285,67.74156301183487,0,69.78809940493072,0,0,0,842,459,0.0282005369663238,799,781,-0.275269478559494,450,683,-0.3047003149986267,0,0,0,0,0,0
2025-03-04 16:41:36,0,156,116,145,126,121,9,128,35,9,12,130,36,126,11,2025-03-04 16:36:06.356,63.05622580253232,0,69.60172013449001,0,0,0,815,458,0.1045494899153709,811,780,-0.2226498275995254,465,680,-0.2848130464553833,0,0,0,0,0,0
2025-03-04 16:41:36,0,157,107,147,128,121,7,127,36,9,12,130,37,126,12,2025-03-04 16:36:06.412,58.32236165335805,0,67.40481552476548,0,0,0,802,463,0.2818838059902191,829,780,-0.140365183353424,494,675,-0.242920696735382,0,0,0,0,0,0
2025-03-04 16:41:36,0,156,118,149,123,121,7,127,34,9,11,130,40,126,11,2025-03-04 16:36:06.495,53.368153881923,0,68.37273573544712,0,0,0,787,465,0.4017939269542694,875,778,-0.1456009298563003,523,674,-0.2440261840820312,0,0,0,0,0,0
2025-03-04 16:41:36,0,157,112,156,131,122,9,123,38,7,10,130,36,130,11,2025-03-04 16:36:06.495,53.368153881923,0,68.37273573544712,0,0,0,787,465,0.4017939269542694,875,778,-0.1456009298563003,523,674,-0.2440261840820312,0,0,0,0,0,0
2025-03-04 16:41:36,0,153,116,157,127,120,7,124,35,10,12,125,35,125,11,2025-03-04 16:36:06.495,53.368153881923,0,68.37273573544712,0,0,0,787,465,0.4017939269542694,875,778,-0.1456009298563003,523,674,-0.2440261840820312,0,0,0,0,0,0
2025-03-04 16:41:36,0,158,114,153,131,123,8,127,36,9,9,133,37,125,11,2025-03-04 16:36:06.596,64.19663542142415,0,76.74654946911251,0,0,0,849,443,0.2623662650585174,923,743,-0.2354005724191665,547,674,-0.338300496339798,0,0,0,0,0,0
2025-03-04 16:41:36,0,157,112,173,135,121,9,126,37,10,11,128,35,129,11,2025-03-04 16:36:06.596,64.19663542142415,0,76.74654946911251,0,0,0,849,443,0.2623662650585174,923,743,-0.2354005724191665,547,674,-0.338300496339798,0,0,0,0,0,0
2025-03-04 16:41:36,0,155,117,159,139,126,8,123,35,11,12,134,40,124,11,2025-03-04 16:36:06.704,149.73119605223377,0,112.47891621282902,0,0,0,1243,403,-0.139760747551918,913,609,-0.4624934494495392,577,669,-0.4397378861904144,0,0,0,0,0,0
2025-03-04 16:41:36,0,164,115,149,141,120,10,132,39,23,13,130,36,126,11,2025-03-04 16:36:06.704,149.73119605223377,0,112.47891621282902,0,0,0,1243,403,-0.139760747551918,913,609,-0.4624934494495392,577,669,-0.4397378861904144,0,0,0,0,0,0
2025-03-04 16:41:36,0,153,118,165,138,131,8,128,35,11,16,133,39,120,11,2025-03-04 16:36:06.792,168.41271510612603,0,120.6233849672536,0,0,0,1353,406,-0.2685930132865906,1014,552,-0.4848802983760834,629,657,-0.4281619191169739,0,0,0,0,0,0
2025-03-04 16:41:36,0,159,112,141,132,121,7,133,42,12,12,127,35,129,11,2025-03-04 16:36:06.792,168.41271510612603,0,120.6233849672536,0,0,0,1353,406,-0.2685930132865906,1014,552,-0.4848802983760834,629,657,-0.4281619191169739,0,0,0,0,0,0
2025-03-04 16:41:36,0,152,119,141,125,124,6,128,36,13,15,126,37,122,11,2025-03-04 16:36:06.855,159.96868123421703,0,111.5637780043703,0,0,0,1355,455,-0.2220639139413833,1022,593,-0.4668228030204773,643,655,-0.4109815061092376,0,0,0,0,0,0
2025-03-04 16:41:36,0,161,115,136,132,123,11,134,39,10,13,128,38,125,11,2025-03-04 16:36:06.921,158.69905721683472,0,107.30860424587178,0,0,0,1311,499,-0.2707516551017761,1006,611,-0.5023757815361023,637,654,-0.4369451105594635,0,0,0,0,0,0
2025-03-04 16:41:36,0,154,115,144,126,120,10,130,38,13,13,124,37,123,11,2025-03-04 16:36:06.986,166.9607501605034,0,108.52753580240068,0,0,0,1405,496,-0.3034863471984863,1035,600,-0.501690685749054,644,652,-0.4257330596446991,0,0,0,0,0,0
2025-03-04 16:41:37,0,150,114,141,128,115,10,130,33,12,17,133,39,122,11,2025-03-04 16:36:06.986,166.9607501605034,0,108.52753580240068,0,0,0,1405,496,-0.3034863471984863,1035,600,-0.501690685749054,644,652,-0.4257330596446991,0,0,0,0,0,0
2025-03-04 16:41:37,0,155,116,137,126,121,9,130,36,11,12,127,35,123,11,2025-03-04 16:36:07.052,167.68448692165265,0,109.48377351961985,0,0,0,1404,495,-0.2789009213447571,1034,599,-0.4912361204624176,657,653,-0.4307304918766022,0,0,0,0,0,0
2025-03-04 16:41:37,0,155,115,137,125,121,7,129,37,11,13,128,37,123,11,2025-03-04 16:36:07.123,160.76053454257794,0,107.08686981692382,0,0,0,1341,500,-0.2609248459339142,1019,609,-0.5093042850494385,645,653,-0.4438995718955993,0,0,0,0,0,0
2025-03-04 16:41:37,0,154,116,136,127,120,7,129,38,10,11,127,37,123,11,2025-03-04 16:36:07.123,160.76053454257794,0,107.08686981692382,0,0,0,1341,500,-0.2609248459339142,1019,609,-0.5093042850494385,645,653,-0.4438995718955993,0,0,0,0,0,0
2025-03-04 16:41:37,0,155,115,136,127,120,8,129,38,11,13,127,37,123,11,2025-03-04 16:36:07.181,161.87079018986483,0,107.15633068991556,0,0,0,1361,499,-0.2708145976066589,1028,607,-0.5157191157341003,645,653,-0.4542641341686249,0,0,0,0,0,0
2025-03-04 16:41:37,0,154,115,136,127,120,9,130,39,10,11,127,35,123,11,2025-03-04 16:36:07.256,166.58336249968764,0,108.4099477799034,0,0,0,1391,499,-0.190964937210083,1048,599,-0.4872182011604309,647,655,-0.4422068893909454,0,0,0,0,0,0
2025-03-04 16:41:37,0,154,115,136,127,120,8,130,38,10,13,127,37,123,11,2025-03-04 16:36:07.256,166.58336249968764,0,108.4099477799034,0,0,0,1391,499,-0.190964937210083,1048,599,-0.4872182011604309,647,655,-0.4422068893909454,0,0,0,0,0,0
2025-03-04 16:41:37,0,154,116,136,128,120,8,131,39,10,13,127,37,123,11,2025-03-04 16:36:07.318,163.4927554097035,0,107.30878500316652,0,0,0,1365,498,-0.186047151684761,1035,603,-0.4979187846183777,640,655,-0.4519182443618774,0,0,0,0,0,0
2025-03-04 16:41:37,0,154,115,136,128,119,6,131,39,10,12,127,38,123,11,2025-03-04 16:36:07.390,162.1341655315891,0,106.83519072731865,0,0,0,1360,497,-0.1202303618192672,1036,605,-0.4832639992237091,636,655,-0.4492311179637909,0,0,0,0,0,0
2025-03-04 16:41:37,0,154,115,136,126,119,9,132,41,10,12,127,35,123,11,2025-03-04 16:36:07.390,162.1341655315891,0,106.83519072731865,0,0,0,1360,497,-0.1202303618192672,1036,605,-0.4832639992237091,636,655,-0.4492311179637909,0,0,0,0,0,0
2025-03-04 16:41:37,0,154,115,136,126,119,8,132,38,10,12,127,37,123,11,2025-03-04 16:36:07.450,164.4772879716885,0,107.17646454302054,0,0,0,1356,501,-0.1137978360056877,1007,607,-0.4799980223178863,634,655,-0.4513880610466003,0,0,0,0,0,0
2025-03-04 16:41:37,0,153,114,136,127,119,9,132,37,10,10,127,36,122,11,2025-03-04 16:36:07.527,163.32392565348417,0,107.00819433497767,0,0,0,1342,502,-0.1183718740940094,1006,608,-0.4951561689376831,634,655,-0.4626517295837402,0,0,0,0,0,0
2025-03-04 16:41:37,0,153,115,135,125,120,9,133,40,10,12,127,34,122,11,2025-03-04 16:36:07.527,163.32392565348417,0,107.00819433497767,0,0,0,1342,502,-0.1183718740940094,1006,608,-0.4951561689376831,634,655,-0.4626517295837402,0,0,0,0,0,0
2025-03-04 16:41:37,0,153,114,136,126,120,7,133,39,10,13,126,37,123,11,2025-03-04 16:36:07.624,167.6951472571738,0,107.40014482421051,0,0,0,1333,518,-0.0138684352859854,991,609,-0.4388826191425323,632,655,-0.4586254358291626,0,0,0,0,0,0
2025-03-04 16:41:37,0,153,116,135,126,120,8,133,40,10,11,127,38,122,11,2025-03-04 16:36:07.624,167.6951472571738,0,107.40014482421051,0,0,0,1333,518,-0.0138684352859854,991,609,-0.4388826191425323,632,655,-0.4586254358291626,0,0,0,0,0,0
2025-03-04 16:41:37,0,153,113,135,126,120,9,133,39,10,12,127,37,123,11,2025-03-04 16:36:07.681,164.24849939917868,0,107.40041597213585,0,0,0,1281,518,0.0244211442768573,984,610,-0.4165397584438324,630,655,-0.4578920900821686,0,0,0,0,0,0
2025-03-04 16:41:37,0,153,116,135,126,120,8,133,42,10,12,126,38,123,11,2025-03-04 16:36:07.761,163.665330219496,0,107.38822347442608,0,0,0,1276,517,0.0224489159882068,982,610,-0.4129319787025451,629,656,-0.4539426267147064,0,0,0,0,0,0
2025-03-04 16:41:37,0,153,115,134,125,120,9,133,38,10,11,127,37,122,11,2025-03-04 16:36:07.761,163.665330219496,0,107.38822347442608,0,0,0,1276,517,0.0224489159882068,982,610,-0.4129319787025451,629,656,-0.4539426267147064,0,0,0,0,0,0
2025-03-04 16:41:37,0,136,115,141,126,120,7,129,39,10,13,127,38,122,11,2025-03-04 16:36:07.851,165.91090919393818,0,106.96250962162355,0,0,0,1277,528,0.0510930866003036,981,612,-0.4053283333778381,628,656,-0.451249212026596,0,0,0,0,0,0
2025-03-04 16:41:37,0,131,113,141,125,120,9,131,39,10,12,127,36,122,11,2025-03-04 16:36:07.851,165.91090919393818,0,106.96250962162355,0,0,0,1277,528,0.0510930866003036,981,612,-0.4053283333778381,628,656,-0.451249212026596,0,0,0,0,0,0
2025-03-04 16:41:37,0,157,114,137,126,120,7,133,38,10,14,127,36,122,11,2025-03-04 16:36:07.927,161.1016325439276,0,106.38672126236708,0,0,0,1233,528,0.0426486134529113,971,616,-0.3998365104198456,628,657,-0.4496553838253021,0,0,0,0,0,0
2025-03-04 16:41:37,0,155,113,136,125,120,7,133,40,10,11,126,38,123,11,2025-03-04 16:36:07.927,161.1016325439276,0,106.38672126236708,0,0,0,1233,528,0.0426486134529113,971,616,-0.3998365104198456,628,657,-0.4496553838253021,0,0,0,0,0,0
2025-03-04 16:41:38,0,153,115,133,125,121,8,133,39,10,12,126,37,123,11,2025-03-04 16:36:08.026,160.99029654816152,0,106.33320659963502,0,0,0,1234,527,0.0417766608297824,963,617,-0.3967113494873047,627,657,-0.4484664797782898,0,0,0,0,0,0
2025-03-04 16:41:38,0,150,115,133,124,124,8,132,38,10,12,126,36,123,11,2025-03-04 16:36:08.026,160.99029654816152,0,106.33320659963502,0,0,0,1234,527,0.0417766608297824,963,617,-0.3967113494873047,627,657,-0.4484664797782898,0,0,0,0,0,0
2025-03-04 16:41:38,0,153,115,133,127,122,10,133,39,10,11,126,36,123,11,2025-03-04 16:36:08.129,159.27538104101453,0,106.08798374622393,0,0,0,1216,526,0.0296651683747768,955,619,-0.4025840759277344,624,657,-0.4488465487957001,0,0,0,0,0,0
2025-03-04 16:41:38,0,153,115,133,126,122,8,133,35,10,10,126,38,123,11,2025-03-04 16:36:08.129,159.27538104101453,0,106.08798374622393,0,0,0,1216,526,0.0296651683747768,955,619,-0.4025840759277344,624,657,-0.4488465487957001,0,0,0,0,0,0
2025-03-04 16:41:38,0,154,115,133,124,123,9,133,39,10,12,127,37,123,11,2025-03-04 16:36:08.224,153.26617198055405,0,104.51024525586612,0,0,0,1176,528,0.064292699098587,943,627,-0.3939443528652191,624,658,-0.4481192529201507,0,0,0,0,0,0
2025-03-04 16:41:38,0,154,114,133,123,123,9,133,37,10,11,126,38,123,11,2025-03-04 16:36:08.224,153.26617198055405,0,104.51024525586612,0,0,0,1176,528,0.064292699098587,943,627,-0.3939443528652191,624,658,-0.4481192529201507,0,0,0,0,0,0
2025-03-04 16:41:38,0,144,114,135,128,121,7,132,39,10,12,127,36,122,11,2025-03-04 16:36:08.285,151.792210664338,0,103.4251740504895,0,0,0,1183,528,0.1399713456630706,938,631,-0.3397698104381561,624,659,-0.4264827072620392,0,0,0,0,0,0
2025-03-04 16:41:38,0,130,113,141,125,120,8,132,40,10,12,127,37,122,11,2025-03-04 16:36:08.285,151.792210664338,0,103.4251740504895,0,0,0,1183,528,0.1399713456630706,938,631,-0.3397698104381561,624,659,-0.4264827072620392,0,0,0,0,0,0
2025-03-04 16:41:38,0,129,114,139,125,120,7,133,37,10,12,126,37,123,11,2025-03-04 16:36:08.353,152.760618216565,0,103.5837082035074,0,0,0,1193,527,0.0953816175460815,939,631,-0.3602012693881988,625,659,-0.4277121424674988,0,0,0,0,0,0
2025-03-04 16:41:38,0,132,113,136,125,122,9,132,38,10,10,127,37,123,11,2025-03-04 16:36:08.420,152.5771800450913,0,103.58218820401692,0,0,0,1196,526,0.0886427536606788,942,631,-0.3501836955547333,626,659,-0.4116771817207336,0,0,0,0,0,0
2025-03-04 16:41:38,0,157,114,135,124,123,7,132,37,10,11,127,36,123,11,2025-03-04 16:36:08.420,152.5771800450913,0,103.58218820401692,0,0,0,1196,526,0.0886427536606788,942,631,-0.3501836955547333,626,659,-0.4116771817207336,0,0,0,0,0,0
2025-03-04 16:41:38,0,151,114,133,125,124,10,132,38,10,13,127,37,121,12,2025-03-04 16:36:08.488,154.23658947336924,0,103.87101392803982,0,0,0,1217,523,-0.0918489024043083,944,630,-0.4332606196403503,624,659,-0.4213660955429077,0,0,0,0,0,0
2025-03-04 16:41:38,0,151,111,134,125,124,10,132,36,10,12,126,37,121,11,2025-03-04 16:36:08.550,155.4426721385359,0,104.04841495682564,0,0,0,1240,519,-0.0710854306817054,954,627,-0.4329415559768677,624,658,-0.4219118952751159,0,0,0,0,0,0
2025-03-04 16:41:38,0,151,112,134,123,124,7,131,35,10,11,127,37,121,11,2025-03-04 16:36:08.624,155.34239862206388,0,104.23798859606298,0,0,0,1251,516,-0.0423433519899845,962,626,-0.4210186302661896,624,658,-0.4227728843688965,0,0,0,0,0,0
2025-03-04 16:41:38,0,153,114,134,124,124,8,132,38,10,12,127,35,121,11,2025-03-04 16:36:08.624,155.34239862206388,0,104.23798859606298,0,0,0,1251,516,-0.0423433519899845,962,626,-0.4210186302661896,624,658,-0.4227728843688965,0,0,0,0,0,0
2025-03-04 16:41:38,0,151,114,134,124,124,8,131,36,10,13,127,36,121,12,2025-03-04 16:36:08.681,155.50974183854248,0,104.37894665273969,0,0,0,1254,514,-0.0387639664113521,963,625,-0.4207604825496673,622,658,-0.4258950054645538,0,0,0,0,0,0
2025-03-04 16:41:38,0,151,110,136,124,124,9,131,38,10,12,127,37,120,11,2025-03-04 16:36:08.757,155.6070846617585,0,104.515169068864,0,0,0,1253,513,-0.0278454925864934,963,624,-0.4194453060626983,622,658,-0.4334709048271179,0,0,0,0,0,0
2025-03-04 16:41:38,0,151,111,136,123,123,8,131,38,10,12,127,37,121,11,2025-03-04 16:36:08.757,155.6070846617585,0,104.515169068864,0,0,0,1253,513,-0.0278454925864934,963,624,-0.4194453060626983,622,658,-0.4334709048271179,0,0,0,0,0,0
2025-03-04 16:41:38,0,151,114,136,123,123,10,131,37,10,13,127,36,120,11,2025-03-04 16:36:08.815,157.11949091510718,0,105.42588018650108,0,0,0,1265,509,-0.1771200150251388,968,620,-0.4924811720848083,621,658,-0.445023238658905,0,0,0,0,0,0
2025-03-04 16:41:38,0,151,111,137,124,123,10,131,37,10,12,127,35,120,11,2025-03-04 16:36:08.891,157.3356889157255,0,106.06002275859416,0,0,0,1264,505,-0.2603000998497009,971,617,-0.5239692330360413,621,658,-0.4549152553081512,0,0,0,0,0,0
2025-03-04 16:41:38,0,151,114,137,124,123,8,131,37,10,13,127,35,121,11,2025-03-04 16:36:08.891,157.3356889157255,0,106.06002275859416,0,0,0,1264,505,-0.2603000998497009,971,617,-0.5239692330360413,621,658,-0.4549152553081512,0,0,0,0,0,0
2025-03-04 16:41:38,0,151,112,137,124,123,10,131,37,10,13,127,36,121,12,2025-03-04 16:36:08.947,157.4353310846031,0,106.26265653989974,0,0,0,1271,500,-0.3114823400974273,971,616,-0.5250982046127319,623,658,-0.4481250047683716,0,0,0,0,0,0
2025-03-04 16:41:39,0,155,119,136,120,124,6,129,36,6,13,125,40,123,11,2025-03-04 16:36:09.025,156.6683377444055,0,106.29526207345508,0,0,0,1270,497,-0.2465238124132156,971,616,-0.5142236948013306,623,658,-0.450771689414978,0,0,0,0,0,0
2025-03-04 16:41:39,0,151,113,137,124,123,8,131,37,10,12,127,36,120,11,2025-03-04 16:36:09.025,156.6683377444055,0,106.29526207345508,0,0,0,1270,497,-0.2465238124132156,971,616,-0.5142236948013306,623,658,-0.450771689414978,0,0,0,0,0,0
2025-03-04 16:41:39,0,152,113,138,124,123,8,131,39,10,12,127,36,121,11,2025-03-04 16:36:09.025,156.6683377444055,0,106.29526207345508,0,0,0,1270,497,-0.2465238124132156,971,616,-0.5142236948013306,623,658,-0.450771689414978,0,0,0,0,0,0
2025-03-04 16:41:39,0,153,114,138,123,123,8,131,39,10,13,127,35,121,11,2025-03-04 16:36:09.081,155.79012013500505,0,106.22579972449716,0,0,0,1275,491,-0.2704819738864898,971,616,-0.531343936920166,621,658,-0.4546046257019043,0,0,0,0,0,0
2025-03-04 16:41:39,0,154,113,139,124,123,9,131,37,10,12,127,36,121,11,2025-03-04 16:36:09.156,154.45643405541676,0,106.12402710757216,0,0,0,1259,492,-0.2214611619710922,970,615,-0.4737128913402557,624,655,-0.4149236381053924,0,0,0,0,0,0
2025-03-04 16:41:39,0,152,113,139,124,123,9,131,40,10,13,126,37,121,11,2025-03-04 16:36:09.156,154.45643405541676,0,106.12402710757216,0,0,0,1259,492,-0.2214611619710922,970,615,-0.4737128913402557,624,655,-0.4149236381053924,0,0,0,0,0,0
2025-03-04 16:41:39,0,131,113,140,123,123,9,131,37,10,12,127,35,120,11,2025-03-04 16:36:09.220,154.32759440157147,0,105.85162196052414,0,0,0,1258,492,-0.2022255808115005,971,614,-0.4694753587245941,624,653,-0.4174176454544067,0,0,0,0,0,0
2025-03-04 16:41:39,0,133,110,140,123,123,8,131,37,10,13,127,35,120,11,2025-03-04 16:36:09.288,154.2966767007234,0,105.61761955234844,0,0,0,1270,489,-0.1937685012817382,976,614,-0.4594298303127289,624,653,-0.4177566468715668,0,0,0,0,0,0
2025-03-04 16:41:39,0,131,113,141,124,123,10,130,38,10,12,127,36,120,11,2025-03-04 16:36:09.288,154.2966767007234,0,105.61761955234844,0,0,0,1270,489,-0.1937685012817382,976,614,-0.4594298303127289,624,653,-0.4177566468715668,0,0,0,0,0,0
2025-03-04 16:41:39,0,132,113,143,123,124,8,130,37,9,13,127,37,120,11,2025-03-04 16:36:09.353,154.35041173009776,0,105.29456970622084,0,0,0,1275,489,-0.2468986809253692,977,613,-0.4789654910564422,622,652,-0.4204957783222198,0,0,0,0,0,0
2025-03-04 16:41:39,0,132,112,143,123,124,8,130,37,9,12,127,37,121,11,2025-03-04 16:36:09.420,155.09330828131314,0,105.36615271809838,0,0,0,1281,488,-0.3106835782527923,976,612,-0.5256634950637817,617,652,-0.4413087069988251,0,0,0,0,0,0
2025-03-04 16:41:39,0,132,112,143,124,124,7,130,36,10,15,127,36,120,11,2025-03-04 16:36:09.487,155.47249791854557,0,105.39698284869829,0,0,0,1287,487,-0.29399374127388,976,612,-0.5158566832542419,615,652,-0.4452948272228241,0,0,0,0,0,0
2025-03-04 16:41:39,0,130,113,142,123,123,10,130,37,10,13,126,33,120,11,2025-03-04 16:36:09.487,155.47249791854557,0,105.39698284869829,0,0,0,1287,487,-0.29399374127388,976,612,-0.5158566832542419,615,652,-0.4452948272228241,0,0,0,0,0,0
2025-03-04 16:41:39,0,155,113,139,124,122,8,131,38,10,13,124,37,122,11,2025-03-04 16:36:09.547,156.46103035714253,0,105.96876004281089,0,0,0,1296,484,-0.277822881937027,978,610,-0.5083522796630859,615,652,-0.4447861611843109,0,0,0,0,0,0
2025-03-04 16:41:39,0,156,114,139,124,122,8,130,38,10,13,124,36,123,11,2025-03-04 16:36:09.624,157.11360046861367,0,106.40642978220411,0,0,0,1300,481,-0.3056992888450622,977,608,-0.5223149657249451,614,652,-0.4449195861816406,0,0,0,0,0,0
2025-03-04 16:41:39,0,155,113,137,123,121,8,131,38,10,13,124,37,124,11,2025-03-04 16:36:09.624,157.11360046861367,0,106.40642978220411,0,0,0,1300,481,-0.3056992888450622,977,608,-0.5223149657249451,614,652,-0.4449195861816406,0,0,0,0,0,0
2025-03-04 16:41:39,0,155,115,136,123,121,10,131,37,9,12,125,37,125,11,2025-03-04 16:36:09.686,158.37411228403153,0,107.37801293466072,0,0,0,1298,480,-0.3312391340732574,976,605,-0.5292196869850159,613,651,-0.4444913566112518,0,0,0,0,0,0
2025-03-04 16:41:39,0,155,116,136,124,121,7,131,38,9,13,125,36,125,11,2025-03-04 16:36:09.757,159.2269155909808,0,107.9555417724743,0,0,0,1299,478,-0.4012383222579956,976,602,-0.5581797957420349,612,651,-0.4426324069499969,0,0,0,0,0,0
2025-03-04 16:41:39,0,155,116,135,121,121,9,131,38,9,12,125,38,125,11,2025-03-04 16:36:09.757,159.2269155909808,0,107.9555417724743,0,0,0,1299,478,-0.4012383222579956,976,602,-0.5581797957420349,612,651,-0.4426324069499969,0,0,0,0,0,0
2025-03-04 16:41:39,0,157,116,137,123,121,8,131,38,9,14,124,37,125,11,2025-03-04 16:36:09.821,159.2398320449464,0,107.73660036642016,0,0,0,1298,477,-0.4148884117603302,971,602,-0.5629894733428955,609,650,-0.4411869049072265,0,0,0,0,0,0
2025-03-04 16:41:39,0,155,116,135,123,121,8,131,40,9,14,125,38,125,11,2025-03-04 16:36:09.891,158.15331659555278,0,107.74748259177282,0,0,0,1275,478,-0.4401965737342834,964,602,-0.5723697543144226,605,650,-0.4371269643306732,0,0,0,0,0,0
2025-03-04 16:41:39,0,155,106,135,126,121,10,131,39,9,12,126,38,125,11,2025-03-04 16:36:09.891,158.15331659555278,0,107.74748259177282,0,0,0,1275,478,-0.4401965737342834,964,602,-0.5723697543144226,605,650,-0.4371269643306732,0,0,0,0,0,0
2025-03-04 16:41:39,0,155,114,135,124,121,9,131,39,9,13,126,35,125,12,2025-03-04 16:36:09.949,157.84800985478793,0,107.78564070273616,0,0,0,1267,478,-0.3743115067481994,960,602,-0.5436620712280273,605,650,-0.4280702769756317,0,0,0,0,0,0
2025-03-04 16:41:40,0,159,115,132,128,121,8,135,41,8,14,126,36,126,11,2025-03-04 16:36:10.022,158.1246101189103,0,108.11424879897407,0,0,0,1263,478,-0.3460153639316559,954,602,-0.5266360640525818,604,650,-0.4207153022289276,0,0,0,0,0,0
2025-03-04 16:41:40,0,149,120,135,119,122,8,129,36,10,16,126,40,122,11,2025-03-04 16:36:10.022,158.1246101189103,0,108.11424879897407,0,0,0,1263,478,-0.3460153639316559,954,602,-0.5266360640525818,604,650,-0.4207153022289276,0,0,0,0,0,0
2025-03-04 16:41:40,0,157,113,130,127,121,7,135,40,8,12,127,37,126,12,2025-03-04 16:36:10.088,158.62209865631905,0,108.2553008612155,0,0,0,1266,478,-0.3197064399719238,952,602,-0.5257948637008667,604,649,-0.4244489371776581,0,0,0,0,0,0
2025-03-04 16:41:40,0,153,118,140,120,118,8,131,39,10,14,124,36,125,11,2025-03-04 16:36:10.153,158.9882243517289,0,108.3124797461094,0,0,0,1272,476,-0.3871195614337921,953,601,-0.5410623550415039,604,649,-0.4250988364219665,0,0,0,0,0,0
2025-03-04 16:41:40,0,151,116,133,126,126,7,128,40,9,10,132,40,127,11,2025-03-04 16:36:10.153,158.9882243517289,0,108.3124797461094,0,0,0,1272,476,-0.3871195614337921,953,601,-0.5410623550415039,604,649,-0.4250988364219665,0,0,0,0,0,0
2025-03-04 16:41:40,0,155,114,137,121,117,9,133,38,9,11,126,37,126,12,2025-03-04 16:36:10.220,158.65598508640892,0,108.26008586188546,0,0,0,1263,477,-0.4444179236888885,950,601,-0.560048520565033,603,648,-0.4215247929096222,0,0,0,0,0,0
2025-03-04 16:41:40,0,151,118,136,118,126,9,128,36,9,13,131,42,120,11,2025-03-04 16:36:10.288,158.45491951885754,0,108.16607603595908,0,0,0,1269,475,-0.5523815155029297,951,601,-0.6029053926467896,603,648,-0.4189216792583465,0,0,0,0,0,0
2025-03-04 16:41:40,0,161,116,132,125,121,9,136,41,8,11,127,38,127,11,2025-03-04 16:36:10.288,158.45491951885754,0,108.16607603595908,0,0,0,1269,475,-0.5523815155029297,951,601,-0.6029053926467896,603,648,-0.4189216792583465,0,0,0,0,0,0
2025-03-04 16:41:40,0,130,116,139,119,117,8,129,36,10,14,124,37,124,11,2025-03-04 16:36:10.357,157.66587059025355,0,107.90381429761185,0,0,0,1263,475,-0.5914667844772339,951,601,-0.6017746329307556,604,647,-0.4016318619251251,0,0,0,0,0,0
2025-03-04 16:41:40,0,135,117,135,121,124,9,129,42,8,11,131,37,120,11,2025-03-04 16:36:10.416,155.82210340673006,0,107.028000844265,0,0,0,1248,476,-0.4130166471004486,945,604,-0.5363666415214539,604,647,-0.3917664885520935,0,0,0,0,0,0
2025-03-04 16:41:40,0,129,116,137,123,117,8,137,38,9,12,126,38,124,11,2025-03-04 16:36:10.490,155.45676086030952,0,106.78725935821556,0,0,0,1241,477,-0.2627575695514679,941,605,-0.497957706451416,604,647,-0.3967567980289459,0,0,0,0,0,0
2025-03-04 16:41:40,0,131,118,143,122,122,8,130,37,9,13,125,37,125,11,2025-03-04 16:36:10.490,155.45676086030952,0,106.78725935821556,0,0,0,1241,477,-0.2627575695514679,941,605,-0.497957706451416,604,647,-0.3967567980289459,0,0,0,0,0,0
2025-03-04 16:41:40,0,132,116,142,122,122,9,130,38,9,13,126,38,125,11,2025-03-04 16:36:10.550,152.43701388366847,0,106.308231572413,0,0,0,1200,483,-0.2608127892017364,933,608,-0.4693118929862976,604,647,-0.3884341418743133,0,0,0,0,0,0
2025-03-04 16:41:40,0,134,116,144,123,122,7,130,38,9,14,125,37,125,11,2025-03-04 16:36:10.623,152.77356090486305,0,106.58950782106928,0,0,0,1217,482,-0.2804228663444519,942,607,-0.473814845085144,610,647,-0.3691493272781372,0,0,0,0,0,0
2025-03-04 16:41:40,0,133,117,142,122,122,10,130,37,9,13,126,39,124,11,2025-03-04 16:36:10.623,152.77356090486305,0,106.58950782106928,0,0,0,1217,482,-0.2804228663444519,942,607,-0.473814845085144,610,647,-0.3691493272781372,0,0,0,0,0,0
2025-03-04 16:41:40,0,133,115,143,123,122,8,130,38,9,13,126,38,125,11,2025-03-04 16:36:10.685,152.533595748665,0,106.90570467292112,0,0,0,1212,484,-0.2138911634683609,946,607,-0.4222631454467773,621,646,-0.3595789074897766,0,0,0,0,0,0
2025-03-04 16:41:40,0,133,117,143,121,122,9,130,37,9,13,127,39,124,11,2025-03-04 16:36:10.754,152.74932823298107,0,107.34527252731178,0,0,0,1225,483,-0.2688033282756805,958,606,-0.4444237351417541,629,646,-0.3673381507396698,0,0,0,0,0,0
2025-03-04 16:41:40,0,132,115,141,121,121,9,130,37,9,12,128,40,124,11,2025-03-04 16:36:10.754,152.74932823298107,0,107.34527252731178,0,0,0,1225,483,-0.2688033282756805,958,606,-0.4444237351417541,629,646,-0.3673381507396698,0,0,0,0,0,0
2025-03-04 16:41:40,0,136,116,140,121,121,9,130,37,9,13,128,39,124,11,2025-03-04 16:36:10.818,152.36724150810215,0,107.55706575234994,0,0,0,1226,483,-0.2398324012756347,964,606,-0.4312435984611511,632,646,-0.368639588356018,0,0,0,0,0,0
2025-03-04 16:41:40,0,136,116,143,122,123,8,130,38,9,13,127,38,124,11,2025-03-04 16:36:10.895,152.23149740788293,0,107.6099603112906,0,0,0,1222,484,-0.2130084633827209,964,606,-0.4255864322185516,633,646,-0.3693321049213409,0,0,0,0,0,0
2025-03-04 16:41:40,0,132,114,141,122,121,8,130,38,9,14,128,39,124,11,2025-03-04 16:36:10.895,152.23149740788293,0,107.6099603112906,0,0,0,1222,484,-0.2130084633827209,964,606,-0.4255864322185516,633,646,-0.3693321049213409,0,0,0,0,0,0
2025-03-04 16:41:40,0,131,115,140,121,121,10,129,37,9,13,129,35,123,11,2025-03-04 16:36:10.984,152.47166193348593,0,107.51516483353964,0,0,0,1225,483,-0.1487689018249511,963,606,-0.4006699323654175,632,647,-0.371408611536026,0,0,0,0,0,0
2025-03-04 16:41:41,0,134,116,142,120,122,8,129,38,9,12,128,38,124,11,2025-03-04 16:36:10.984,152.47166193348593,0,107.51516483353964,0,0,0,1225,483,-0.1487689018249511,963,606,-0.4006699323654175,632,647,-0.371408611536026,0,0,0,0,0,0
2025-03-04 16:41:41,0,132,116,141,122,121,10,129,38,9,13,129,39,123,11,2025-03-04 16:36:11.057,152.93713549392675,0,107.6635707267592,0,0,0,1226,483,-0.2045532613992691,960,606,-0.4076177775859833,632,647,-0.3616966605186462,0,0,0,0,0,0
2025-03-04 16:41:41,0,135,117,143,121,122,8,129,38,9,12,129,38,124,11,2025-03-04 16:36:11.115,152.56412720911467,0,107.32518166537324,0,0,0,1220,483,-0.156513050198555,955,607,-0.3971577882766723,629,647,-0.3635252118110657,0,0,0,0,0,0
2025-03-04 16:41:41,0,136,117,141,121,121,9,128,39,9,12,129,37,123,11,2025-03-04 16:36:11.115,152.56412720911467,0,107.32518166537324,0,0,0,1220,483,-0.156513050198555,955,607,-0.3971577882766723,629,647,-0.3635252118110657,0,0,0,0,0,0
2025-03-04 16:41:41,0,135,116,141,120,121,8,128,36,9,12,129,38,123,11,2025-03-04 16:36:11.190,152.09339548502078,0,107.2468417853258,0,0,0,1204,485,-0.1428346037864685,948,607,-0.4046066999435425,627,647,-0.3694941103458404,0,0,0,0,0,0
2025-03-04 16:41:41,0,134,116,141,121,121,8,128,38,9,12,129,37,123,11,2025-03-04 16:36:11.255,152.9102171964879,0,107.27458281076495,0,0,0,1192,487,-0.1724663525819778,934,608,-0.3962330520153045,623,646,-0.3575560748577118,0,0,0,0,0,0
2025-03-04 16:41:41,0,137,116,142,122,122,8,128,36,9,12,129,37,123,11,2025-03-04 16:36:11.255,152.9102171964879,0,107.27458281076495,0,0,0,1192,487,-0.1724663525819778,934,608,-0.3962330520153045,623,646,-0.3575560748577118,0,0,0,0,0,0
2025-03-04 16:41:41,0,136,116,142,121,122,10,128,35,9,11,129,38,123,11,2025-03-04 16:36:11.325,152.95617041706635,0,106.88751693644636,0,0,0,1191,487,-0.1821422576904297,928,608,-0.4006864428520202,622,646,-0.3583735525608063,0,0,0,0,0,0
2025-03-04 16:41:41,0,136,115,143,122,122,9,128,36,9,14,128,37,123,11,2025-03-04 16:36:11.385,152.51744654986973,0,105.75686230727968,0,0,0,1185,488,-0.1720951944589615,920,609,-0.4080066084861755,610,646,-0.3770594000816345,0,0,0,0,0,0
2025-03-04 16:41:41,0,138,116,143,122,123,7,128,36,9,11,128,37,123,11,2025-03-04 16:36:11.385,152.51744654986973,0,105.75686230727968,0,0,0,1185,488,-0.1720951944589615,920,609,-0.4080066084861755,610,646,-0.3770594000816345,0,0,0,0,0,0
2025-03-04 16:41:41,0,142,116,145,120,124,9,128,36,9,13,129,39,123,11,2025-03-04 16:36:11.456,152.64887281915767,0,105.07904835018276,0,0,0,1185,488,-0.223733440041542,915,610,-0.4348378777503967,602,645,-0.3785538673400879,0,0,0,0,0,0
2025-03-04 16:41:41,0,139,115,145,121,123,6,128,37,9,14,128,37,123,11,2025-03-04 16:36:11.524,155.24847650405798,0,106.38403024610312,0,0,0,1197,485,-0.3080181181430816,920,604,-0.4699693024158478,602,645,-0.3844108879566192,0,0,0,0,0,0
2025-03-04 16:41:41,0,134,114,142,123,122,8,128,37,10,13,128,37,123,11,2025-03-04 16:36:11.524,155.24847650405798,0,106.38403024610312,0,0,0,1197,485,-0.3080181181430816,920,604,-0.4699693024158478,602,645,-0.3844108879566192,0,0,0,0,0,0
2025-03-04 16:41:41,0,134,113,141,124,122,7,128,38,10,12,128,36,122,11,2025-03-04 16:36:11.587,155.6807346376661,0,106.51775986921773,0,0,0,1197,484,-0.2768288850784302,919,603,-0.4647367894649505,601,644,-0.3875287175178528,0,0,0,0,0,0
2025-03-04 16:41:41,0,132,113,141,123,121,8,128,39,10,12,127,37,122,11,2025-03-04 16:36:11.657,157.08963128109067,0,106.95714699012734,0,0,0,1212,481,-0.4553594589233398,921,601,-0.5418441295623779,601,644,-0.3953542709350586,0,0,0,0,0,0
2025-03-04 16:41:41,0,132,114,141,124,120,8,128,37,10,12,127,37,122,11,2025-03-04 16:36:11.657,157.08963128109067,0,106.95714699012734,0,0,0,1212,481,-0.4553594589233398,921,601,-0.5418441295623779,601,644,-0.3953542709350586,0,0,0,0,0,0
2025-03-04 16:41:41,0,129,114,139,125,119,9,128,39,10,13,127,37,122,11,2025-03-04 16:36:11.723,157.26993129411616,0,107.0425552134429,0,0,0,1220,478,-0.3983122408390045,922,601,-0.5194316506385803,600,644,-0.3942683935165405,0,0,0,0,0,0
2025-03-04 16:41:41,0,156,114,136,124,118,9,132,39,10,12,127,36,122,11,2025-03-04 16:36:11.787,157.51863052055887,0,107.39743719121915,0,0,0,1229,473,-0.4789730906486511,926,599,-0.5489590167999268,600,644,-0.3946391344070434,0,0,0,0,0,0
2025-03-04 16:41:41,0,153,114,134,125,118,7,133,39,10,11,126,38,122,11,2025-03-04 16:36:11.787,157.51863052055887,0,107.39743719121915,0,0,0,1229,473,-0.4789730906486511,926,599,-0.5489590167999268,600,644,-0.3946391344070434,0,0,0,0,0,0
2025-03-04 16:41:41,0,151,113,132,123,119,9,133,39,10,11,126,37,122,11,2025-03-04 16:36:11.854,157.73632212728106,0,107.74405064236664,0,0,0,1229,472,-0.4912581443786621,927,597,-0.5480819344520569,600,644,-0.3936926126480102,0,0,0,0,0,0
2025-03-04 16:41:41,0,152,115,132,124,119,8,133,40,10,12,126,36,122,11,2025-03-04 16:36:11.925,157.69014108691013,0,107.98708986477853,0,0,0,1229,471,-0.441047728061676,931,596,-0.5305799245834351,600,644,-0.3905110955238342,0,0,0,0,0,0
2025-03-04 16:41:41,0,152,115,131,124,120,7,133,39,10,11,126,37,123,11,2025-03-04 16:36:11.925,157.69014108691013,0,107.98708986477853,0,0,0,1229,471,-0.441047728061676,931,596,-0.5305799245834351,600,644,-0.3905110955238342,0,0,0,0,0,0
2025-03-04 16:41:42,0,152,114,131,123,120,7,133,39,10,11,126,38,123,11,2025-03-04 16:36:11.985,157.86452158193237,0,108.41114548924536,0,0,0,1228,470,-0.4140729308128357,933,594,-0.5255790948867798,600,643,-0.3855960667133331,0,0,0,0,0,0
2025-03-04 16:41:42,0,153,115,132,123,121,9,133,39,10,11,126,37,123,11,2025-03-04 16:36:12.058,157.6739341910049,0,108.49697543709324,0,0,0,1228,470,-0.5035000443458557,933,594,-0.5513814091682434,600,643,-0.3859891295433044,0,0,0,0,0,0
2025-03-04 16:41:42,0,142,114,133,125,120,9,133,40,10,9,126,37,123,11,2025-03-04 16:36:12.058,157.6739341910049,0,108.49697543709324,0,0,0,1228,470,-0.5035000443458557,933,594,-0.5513814091682434,600,643,-0.3859891295433044,0,0,0,0,0,0
2025-03-04 16:41:42,0,153,115,131,122,121,8,133,40,10,11,126,36,123,11,2025-03-04 16:36:12.122,157.49231781781103,0,108.51437738811696,0,0,0,1228,469,-0.461220234632492,933,594,-0.5389507412910461,600,643,-0.3853172957897186,0,0,0,0,0,0
2025-03-04 16:41:42,0,153,116,131,124,122,10,132,37,9,11,126,36,123,11,2025-03-04 16:36:12.190,157.63786653355598,0,108.78248501378371,0,0,0,1228,468,-0.4787092208862304,933,594,-0.5392274260520935,600,643,-0.3836257755756378,0,0,0,0,0,0
2025-03-04 16:41:42,0,153,115,132,124,122,8,132,37,9,11,126,36,123,11,2025-03-04 16:36:12.253,157.45646866656907,0,108.83814685572509,0,0,0,1228,467,-0.5417250394821167,933,594,-0.5639227628707886,600,643,-0.3826493918895721,0,0,0,0,0,0
2025-03-04 16:41:42,0,152,115,131,122,122,9,132,37,9,11,126,38,123,11,2025-03-04 16:36:12.253,157.45646866656907,0,108.83814685572509,0,0,0,1228,467,-0.5417250394821167,933,594,-0.5639227628707886,600,643,-0.3826493918895721,0,0,0,0,0,0
2025-03-04 16:41:42,0,153,114,131,124,122,7,132,38,9,11,126,37,122,11,2025-03-04 16:36:12.325,157.3197091952128,0,108.96034879246923,0,0,0,1230,465,-0.5065904259681702,933,593,-0.5559675097465515,601,643,-0.3819320797920227,0,0,0,0,0,0
2025-03-04 16:41:42,0,152,111,131,123,123,10,132,37,9,11,126,37,122,11,2025-03-04 16:36:12.386,156.9548552734222,0,109.09108852418537,0,0,0,1225,465,-0.3674384355545044,933,594,-0.5291864275932312,601,644,-0.3863565325736999,0,0,0,0,0,0
2025-03-04 16:41:42,0,151,114,132,123,123,8,132,38,9,11,126,38,122,11,2025-03-04 16:36:12.386,156.9548552734222,0,109.09108852418537,0,0,0,1225,465,-0.3674384355545044,933,594,-0.5291864275932312,601,644,-0.3863565325736999,0,0,0,0,0,0
2025-03-04 16:41:42,0,151,114,131,124,123,7,132,40,9,11,126,38,121,11,2025-03-04 16:36:12.458,156.54367204549555,0,109.10282151030056,0,0,0,1221,465,-0.3623661398887634,932,594,-0.510410726070404,601,644,-0.384582906961441,0,0,0,0,0,0
2025-03-04 16:41:42,0,151,113,132,122,123,8,132,39,9,11,126,35,121,11,2025-03-04 16:36:12.522,156.59158434156276,0,109.19959960690238,0,0,0,1221,465,-0.4605046510696411,932,594,-0.5376883149147034,601,644,-0.3866877853870392,0,0,0,0,0,0
