timestamp,elbow_angle,wrist_angle,shoulder_angle,hand_x,hand_y,hand_z,wrist_x,wrist_y,wrist_z,elbow_x,elbow_y,elbow_z,shoulder_x,shoulder_y,shoulder_z,velocity_x,velocity_y,velocity_z,acceleration_x,acceleration_y,acceleration_z
2025-03-04 16:44:38.501,72.90959066968507,0,60.68511642022099,0,0,0,707,602,0.10237514972686768,583,821,-0.23616822063922882,213,677,-0.29434341192245483,0,0,0,0,0,0
2025-03-04 16:44:38.567,73.30565652648166,0,60.840689809489724,0,0,0,707,603,0.09925250709056854,583,819,-0.2392829954624176,213,675,-0.2955329120159149,0,0,0,0,0,0
2025-03-04 16:44:38.632,73.44447295253818,0,60.87505411466803,0,0,0,708,603,0.06540591269731522,583,819,-0.26074203848838806,213,676,-0.3107251226902008,0,0,0,0,0,0
2025-03-04 16:44:38.698,73.56110397156522,0,60.69106391114845,0,0,0,708,603,0.11465516686439514,583,818,-0.23490633070468903,217,676,-0.3008304834365845,0,0,0,0,0,0
2025-03-04 16:44:38.771,74.03723451349724,0,60.83271505376923,0,0,0,709,602,0.13278324902057648,584,817,-0.22896544635295868,218,677,-0.2986803650856018,0,0,0,0,0,0
2025-03-04 16:44:38.828,74.02735273443757,0,60.768139326489035,0,0,0,710,601,0.12884774804115295,584,816,-0.22585098445415497,218,676,-0.28917020559310913,0,0,0,0,0,0
2025-03-04 16:44:38.900,74.06614257106074,0,60.753379035637344,0,0,0,711,601,0.12567171454429626,585,816,-0.2152465432882309,218,676,-0.279349148273468,0,0,0,0,0,0
2025-03-04 16:44:38.967,74.01150521411262,0,60.897103130525444,0,0,0,712,600,0.12369675189256668,584,816,-0.2182111144065857,218,676,-0.2812269926071167,0,0,0,0,0,0
2025-03-04 16:44:39.035,74.10336933286447,0,61.06707179943391,0,0,0,712,601,0.12254951894283295,586,816,-0.2197103649377823,218,675,-0.2827450633049011,0,0,0,0,0,0
2025-03-04 16:44:39.100,74.666401932192,0,61.437567324067565,0,0,0,713,602,0.12199577689170837,586,814,-0.22794942557811737,217,675,-0.28604456782341003,0,0,0,0,0,0
2025-03-04 16:44:39.169,75.36647044208794,0,61.73405291775061,0,0,0,713,603,0.11790992319583893,585,813,-0.24760626256465912,215,675,-0.29946285486221313,0,0,0,0,0,0
2025-03-04 16:44:39.230,75.7377867915837,0,61.561253949313084,0,0,0,714,603,0.06205811724066734,581,813,-0.29103413224220276,210,673,-0.31388166546821594,0,0,0,0,0,0
2025-03-04 16:44:39.301,76.3975168520395,0,61.27530038723676,0,0,0,714,603,0.07283107936382294,575,812,-0.28002604842185974,207,672,-0.31278011202812195,0,0,0,0,0,0
2025-03-04 16:44:39.368,77.26765261245964,0,60.96944430080046,0,0,0,714,603,0.007777999620884657,570,812,-0.3261581063270569,197,670,-0.32589519023895264,0,0,0,0,0,0
2025-03-04 16:44:39.428,77.22665420063996,0,60.745444756269556,0,0,0,715,604,0.06562644988298416,572,812,-0.29738372564315796,201,671,-0.3251801133155823,0,0,0,0,0,0
2025-03-04 16:44:39.496,77.65006954061027,0,61.4034485977109,0,0,0,717,603,0.07945521175861359,576,810,-0.2936810553073883,202,672,-0.3229469060897827,0,0,0,0,0,0
2025-03-04 16:44:39.572,77.1593477621293,0,61.46660866947824,0,0,0,719,599,0.11397158354520798,579,810,-0.26736417412757874,205,672,-0.31987935304641724,0,0,0,0,0,0
2025-03-04 16:44:39.629,76.18559084329571,0,61.731209541417414,0,0,0,722,595,0.12561778724193573,588,811,-0.25498032569885254,210,673,-0.31908974051475525,0,0,0,0,0,0
2025-03-04 16:44:39.701,75.1223243716282,0,62.1493423994803,0,0,0,723,592,0.17308063805103302,596,811,-0.23591624200344086,217,673,-0.31724444031715393,0,0,0,0,0,0
2025-03-04 16:44:39.772,74.84404565709934,0,62.1718397683051,0,0,0,724,592,0.1586078703403473,599,811,-0.2455277144908905,218,673,-0.32354679703712463,0,0,0,0,0,0
2025-03-04 16:44:39.829,74.48045782914407,0,61.975691138477124,0,0,0,724,592,0.14877817034721375,601,811,-0.24794763326644897,222,673,-0.3311755359172821,0,0,0,0,0,0
2025-03-04 16:44:39.901,74.34832519634932,0,61.72988382793938,0,0,0,726,590,0.14478331804275513,601,812,-0.24428193271160126,223,672,-0.3302784264087677,0,0,0,0,0,0
2025-03-04 16:44:39.969,74.33452452704547,0,61.688825431990665,0,0,0,726,589,0.13248248398303986,601,811,-0.24703072011470795,223,672,-0.32823625206947327,0,0,0,0,0,0
2025-03-04 16:44:40.034,74.37847617188669,0,61.514394379201214,0,0,0,726,589,0.13472837209701538,601,811,-0.24376633763313293,222,672,-0.32232657074928284,0,0,0,0,0,0
2025-03-04 16:44:40.099,74.44217969319813,0,61.46586319743918,0,0,0,726,589,0.1265859454870224,600,811,-0.24260948598384857,222,672,-0.31049397587776184,0,0,0,0,0,0
2025-03-04 16:44:40.170,74.46161993756623,0,61.462261152503565,0,0,0,726,588,0.1110980212688446,600,810,-0.244070366024971,222,671,-0.3090527653694153,0,0,0,0,0,0
2025-03-04 16:44:40.231,74.52121746819068,0,61.46520425982853,0,0,0,726,588,0.09977439045906067,600,810,-0.2526133954524994,222,671,-0.3090726137161255,0,0,0,0,0,0
2025-03-04 16:44:40.301,74.52753471916849,0,61.46054032537627,0,0,0,726,588,0.1493229866027832,600,810,-0.24209356307983398,222,671,-0.3085799217224121,0,0,0,0,0,0
2025-03-04 16:44:40.370,74.52311659440373,0,61.184127029987195,0,0,0,726,588,0.14779391884803772,600,810,-0.2424195557832718,222,671,-0.30610889196395874,0,0,0,0,0,0
2025-03-04 16:44:40.431,74.68001574157041,0,61.33866502237784,0,0,0,728,585,0.11530016362667084,599,809,-0.26952964067459106,221,671,-0.3215087354183197,0,0,0,0,0,0
2025-03-04 16:44:40.503,74.77773360642624,0,61.36409842871087,0,0,0,728,585,0.069764643907547,599,809,-0.29139670729637146,221,671,-0.33811047673225403,0,0,0,0,0,0
2025-03-04 16:44:40.568,74.69138042583724,0,61.40857123986894,0,0,0,730,580,0.07532943040132523,600,809,-0.2847335636615753,221,671,-0.33500298857688904,0,0,0,0,0,0
2025-03-04 16:44:40.634,74.3744812246761,0,61.46972117071096,0,0,0,731,574,0.08657148480415344,601,809,-0.27732712030410767,223,671,-0.3288855254650116,0,0,0,0,0,0
2025-03-04 16:44:40.699,74.3589441457055,0,61.44697280492285,0,0,0,731,574,0.08390234410762787,600,809,-0.2756229043006897,223,671,-0.32756683230400085,0,0,0,0,0,0
2025-03-04 16:44:40.772,74.30093627068499,0,61.46131707631705,0,0,0,729,576,0.08162739127874374,600,809,-0.27323219180107117,225,672,-0.3244338631629944,0,0,0,0,0,0
2025-03-04 16:44:40.874,74.81374629119178,0,61.691738135464306,0,0,0,726,585,0.09116252511739731,598,809,-0.26812711358070374,225,673,-0.32046589255332947,0,0,0,0,0,0
2025-03-04 16:44:40.971,74.91900689988687,0,61.793254051943386,0,0,0,725,589,0.10079800337553024,598,809,-0.2631438672542572,227,674,-0.32338276505470276,0,0,0,0,0,0
2025-03-04 16:44:41.031,74.94322184460552,0,62.08125118301019,0,0,0,723,591,0.11851216852664948,600,809,-0.25362250208854675,229,674,-0.32060351967811584,0,0,0,0,0,0
2025-03-04 16:44:41.106,74.58845195036844,0,62.06050738899177,0,0,0,723,591,0.11840660125017166,601,809,-0.24497078359127045,233,675,-0.32219064235687256,0,0,0,0,0,0
2025-03-04 16:44:41.199,74.4456054026649,0,62.23202487571096,0,0,0,723,591,0.1694921851158142,603,809,-0.20482449233531952,233,675,-0.294335275888443,0,0,0,0,0,0
2025-03-04 16:44:41.272,74.14157588187729,0,62.53669170621939,0,0,0,724,586,0.19004040956497192,607,808,-0.2075161337852478,233,675,-0.29616960883140564,0,0,0,0,0,0
2025-03-04 16:44:41.334,73.89947768066982,0,62.78762963492955,0,0,0,725,585,0.17344282567501068,609,808,-0.21338073909282684,233,674,-0.29818278551101685,0,0,0,0,0,0
2025-03-04 16:44:41.402,73.63711062673283,0,63.08840764117947,0,0,0,727,583,0.16635513305664062,615,808,-0.2186889350414276,232,674,-0.29891812801361084,0,0,0,0,0,0
2025-03-04 16:44:41.468,72.81563672058233,0,63.4097721744811,0,0,0,728,581,0.1749478429555893,625,808,-0.21754689514636993,235,674,-0.2979825437068939,0,0,0,0,0,0
2025-03-04 16:44:41.536,72.27360379865998,0,63.54705252513081,0,0,0,729,579,0.16833604872226715,629,809,-0.21991068124771118,241,674,-0.30421528220176697,0,0,0,0,0,0
2025-03-04 16:44:41.602,72.5184893902195,0,63.81230153708182,0,0,0,732,570,0.10159831494092941,628,807,-0.2437467873096466,241,675,-0.30449268221855164,0,0,0,0,0,0
2025-03-04 16:44:41.667,72.91527574260274,0,63.662774942696075,0,0,0,733,572,0.11106155067682266,626,807,-0.2434600442647934,242,675,-0.3046231269836426,0,0,0,0,0,0
2025-03-04 16:44:41.737,72.84676312720228,0,63.40143312838748,0,0,0,737,567,0.11335816979408264,627,807,-0.24306823313236237,245,675,-0.3047889769077301,0,0,0,0,0,0
2025-03-04 16:44:41.795,72.68968615129772,0,62.797912574624604,0,0,0,737,571,0.10295876860618591,625,810,-0.2569023072719574,242,675,-0.3082157075405121,0,0,0,0,0,0
2025-03-04 16:44:41.871,72.70351108667124,0,62.25233560994088,0,0,0,738,578,0.052741628140211105,624,812,-0.2755388915538788,241,675,-0.309447705745697,0,0,0,0,0,0
2025-03-04 16:44:41.931,73.06064005770027,0,61.72009143301496,0,0,0,738,580,0.03457914665341377,621,813,-0.28869038820266724,241,676,-0.3121036887168884,0,0,0,0,0,0
2025-03-04 16:44:42.006,72.88569309942629,0,61.3367457980449,0,0,0,740,578,0.093795046210289,622,813,-0.27851831912994385,247,676,-0.3123098909854889,0,0,0,0,0,0
2025-03-04 16:44:42.063,72.73161819892546,0,61.32398068674519,0,0,0,743,579,0.11904259771108627,623,815,-0.26242345571517944,252,678,-0.31226974725723267,0,0,0,0,0,0
2025-03-04 16:44:42.140,73.03828806278561,0,61.448871794527875,0,0,0,745,579,0.08083449304103851,624,815,-0.2781873345375061,251,679,-0.314191609621048,0,0,0,0,0,0
2025-03-04 16:44:42.199,73.20949784101947,0,61.46955224905464,0,0,0,745,580,0.027661647647619247,625,815,-0.30451610684394836,249,679,-0.31693071126937866,0,0,0,0,0,0
2025-03-04 16:44:42.271,72.42897322667478,0,61.34261132960253,0,0,0,748,580,0.04315175861120224,639,815,-0.29884955286979675,253,678,-0.31766921281814575,0,0,0,0,0,0
2025-03-04 16:44:42.331,71.21802898357832,0,61.7469031842783,0,0,0,749,576,0.1190025582909584,650,812,-0.2829088866710663,268,678,-0.3168468177318573,0,0,0,0,0,0
2025-03-04 16:44:42.401,68.89689990590556,0,61.66136897808547,0,0,0,754,573,0.15548081696033478,672,811,-0.2528991401195526,290,678,-0.3108288049697876,0,0,0,0,0,0
2025-03-04 16:44:42.468,66.49160025778276,0,61.96319968676766,0,0,0,762,564,0.31051066517829895,697,811,-0.1398436725139618,317,678,-0.2635550796985626,0,0,0,0,0,0
2025-03-04 16:44:42.535,62.981224668471086,0,60.86346580735634,0,0,0,769,545,0.2545519173145294,730,811,-0.17660804092884064,348,678,-0.2745605707168579,0,0,0,0,0,0
2025-03-04 16:44:42.602,59.8891140584261,0,61.213920431396964,0,0,0,768,528,0.2713746726512909,756,809,-0.15647456049919128,375,678,-0.26710084080696106,0,0,0,0,0,0
2025-03-04 16:44:42.666,60.25202784061906,0,62.68303664188849,0,0,0,780,519,0.27790483832359314,775,802,-0.15798760950565338,398,678,-0.2637988030910492,0,0,0,0,0,0
2025-03-04 16:44:42.736,58.011707571360034,0,62.713563387040566,0,0,0,818,486,0.3485122323036194,834,797,-0.12382079660892487,471,678,-0.26783761382102966,0,0,0,0,0,0
2025-03-04 16:44:42.810,83.265614149002,0,75.2701426954632,0,0,0,993,463,0.3044929802417755,889,753,-0.20467998087406158,489,680,-0.33216363191604614,0,0,0,0,0,0
2025-03-04 16:44:42.902,159.90865879701622,0,117.72820407413606,0,0,0,1193,415,0.10037751495838165,878,588,-0.3813489079475403,539,674,-0.42488017678260803,0,0,0,0,0,0
2025-03-04 16:44:42.972,178.7762671420833,0,129.2169218493928,0,0,0,1287,389,-0.470269113779068,919,537,-0.5579919815063477,579,666,-0.4101985991001129,0,0,0,0,0,0
2025-03-04 16:44:43.075,166.73114298976952,0,123.15507687478255,0,0,0,1279,410,-0.8061291575431824,942,573,-0.7061423659324646,625,665,-0.42146044969558716,0,0,0,0,0,0
2025-03-04 16:44:43.130,157.61819125858037,0,115.21434759197031,0,0,0,1309,422,-0.2989434599876404,971,594,-0.5586863160133362,614,666,-0.4650139808654785,0,0,0,0,0,0
2025-03-04 16:44:43.207,153.85115101229428,0,113.57994779943881,0,0,0,1313,430,-0.3184809982776642,982,607,-0.5716030597686768,639,667,-0.4824204444885254,0,0,0,0,0,0
2025-03-04 16:44:43.263,149.78416796057635,0,112.01823358484891,0,0,0,1315,437,-0.22385655343532562,1010,613,-0.5005486607551575,660,667,-0.44629254937171936,0,0,0,0,0,0
2025-03-04 16:44:43.339,152.325594977694,0,112.29236808444551,0,0,0,1335,437,-0.16866491734981537,1021,609,-0.49119192361831665,657,670,-0.4526329040527344,0,0,0,0,0,0
2025-03-04 16:44:43.397,153.99479869435146,0,112.66049133418153,0,0,0,1341,440,-0.08214803785085678,1019,608,-0.4782938063144684,652,670,-0.4539784789085388,0,0,0,0,0,0
2025-03-04 16:44:43.470,151.84017468280803,0,111.83674645411445,0,0,0,1342,443,-0.11706443876028061,1039,609,-0.4972500205039978,655,671,-0.463287889957428,0,0,0,0,0,0
2025-03-04 16:44:43.531,152.19105039427617,0,111.71395983226616,0,0,0,1345,444,-0.19500313699245453,1031,612,-0.5232763290405273,652,672,-0.46278780698776245,0,0,0,0,0,0
2025-03-04 16:44:43.604,153.61350516830478,0,111.45441447819243,0,0,0,1325,461,-0.05502155050635338,1025,613,-0.48772525787353516,654,672,-0.45522305369377136,0,0,0,0,0,0
2025-03-04 16:44:43.667,155.29895416443418,0,111.80791619483391,0,0,0,1311,475,-0.045696888118982315,1022,615,-0.44465380907058716,656,674,-0.43605121970176697,0,0,0,0,0,0
2025-03-04 16:44:43.739,155.47950323153648,0,111.98842444767193,0,0,0,1309,479,-0.0569351464509964,1023,616,-0.45419666171073914,659,675,-0.43924370408058167,0,0,0,0,0,0
2025-03-04 16:44:43.797,156.7847772877795,0,112.07735167377824,0,0,0,1327,479,-0.2736673951148987,1024,617,-0.5501677989959717,662,675,-0.47388267517089844,0,0,0,0,0,0
2025-03-04 16:44:43.871,156.10724217709287,0,111.2902162347632,0,0,0,1324,480,-0.2270246297121048,1022,617,-0.5353816747665405,658,673,-0.4677593410015106,0,0,0,0,0,0
2025-03-04 16:44:43.932,156.44459229491653,0,111.02881049624169,0,0,0,1319,482,-0.25991275906562805,1012,618,-0.5345905423164368,657,670,-0.46389734745025635,0,0,0,0,0,0
2025-03-04 16:44:44.006,156.37607620913155,0,110.9064656953762,0,0,0,1315,482,-0.2359912395477295,1010,618,-0.5244008302688599,655,670,-0.45904380083084106,0,0,0,0,0,0
2025-03-04 16:44:44.069,157.14798191304845,0,111.8147071495517,0,0,0,1313,480,-0.279823362827301,1009,614,-0.5205821990966797,654,668,-0.4380146563053131,0,0,0,0,0,0
2025-03-04 16:44:44.134,159.15422084658755,0,112.43647486696322,0,0,0,1313,479,-0.2662661373615265,996,612,-0.5177267789840698,650,668,-0.4380626976490021,0,0,0,0,0,0
2025-03-04 16:44:44.202,159.32734807179125,0,112.8193433408469,0,0,0,1282,483,-0.19326533377170563,978,611,-0.49339744448661804,647,665,-0.43630918860435486,0,0,0,0,0,0
2025-03-04 16:44:44.267,159.4698970151715,0,113.35370747900504,0,0,0,1270,484,-0.19261188805103302,977,609,-0.49071282148361206,646,665,-0.4364030957221985,0,0,0,0,0,0
2025-03-04 16:44:44.337,160.23385278823227,0,113.7217464654599,0,0,0,1270,484,-0.26864367723464966,977,607,-0.5203751921653748,645,665,-0.4458537995815277,0,0,0,0,0,0
2025-03-04 16:44:44.401,160.3473813989535,0,113.60036648988986,0,0,0,1271,484,-0.3095012903213501,977,607,-0.558681070804596,644,664,-0.46713271737098694,0,0,0,0,0,0
2025-03-04 16:44:44.471,160.65881148074268,0,113.0868714452257,0,0,0,1277,484,-0.3350822627544403,976,606,-0.553325355052948,641,662,-0.466679185628891,0,0,0,0,0,0
2025-03-04 16:44:44.537,160.37791307688155,0,112.69559520286195,0,0,0,1277,484,-0.33085840940475464,976,606,-0.5530908107757568,641,660,-0.4635063111782074,0,0,0,0,0,0
2025-03-04 16:44:44.599,159.81586933042468,0,112.0089201793175,0,0,0,1274,484,-0.30072706937789917,973,606,-0.5303218364715576,639,658,-0.44900596141815186,0,0,0,0,0,0
2025-03-04 16:44:44.673,159.62662874673057,0,111.79537125359498,0,0,0,1269,487,-0.15272103250026703,973,607,-0.44973722100257874,639,658,-0.41711071133613586,0,0,0,0,0,0
2025-03-04 16:44:44.733,156.41485892927435,0,109.74845508676307,0,0,0,1259,495,-0.1457643359899521,972,615,-0.4542566239833832,638,659,-0.4180782735347748,0,0,0,0,0,0
2025-03-04 16:44:44.804,156.71259750808372,0,109.84272465150238,0,0,0,1265,494,-0.1498841792345047,975,615,-0.49225467443466187,638,659,-0.44605955481529236,0,0,0,0,0,0
2025-03-04 16:44:44.867,158.52037721651877,0,110.5727984973993,0,0,0,1264,494,-0.15841642022132874,962,614,-0.5020519495010376,635,659,-0.4509909749031067,0,0,0,0,0,0
2025-03-04 16:44:44.939,159.9731939191453,0,111.13003056679327,0,0,0,1282,492,-0.29097509384155273,971,611,-0.5180701017379761,639,658,-0.4504043459892273,0,0,0,0,0,0
2025-03-04 16:44:45.001,160.38215912823495,0,110.88607749663248,0,0,0,1299,489,-0.3934643864631653,979,608,-0.5429179072380066,639,655,-0.44629475474357605,0,0,0,0,0,0
2025-03-04 16:44:45.070,159.48603639757806,0,110.79546102759818,0,0,0,1315,484,-0.3645080029964447,992,607,-0.5381912589073181,643,655,-0.4443150758743286,0,0,0,0,0,0
2025-03-04 16:44:45.135,159.5118687532387,0,111.11294646721814,0,0,0,1311,484,-0.30512645840644836,993,607,-0.49970245361328125,645,656,-0.43561288714408875,0,0,0,0,0,0
2025-03-04 16:44:45.194,159.0603859337994,0,111.231976941498,0,0,0,1309,484,-0.3904044032096863,997,607,-0.5190706849098206,647,656,-0.4333420693874359,0,0,0,0,0,0
2025-03-04 16:44:45.262,159.02991377370415,0,111.48973000357519,0,0,0,1308,483,-0.3995342552661896,997,607,-0.543089747428894,647,658,-0.43689653277397156,0,0,0,0,0,0
2025-03-04 16:44:45.327,159.1103335348191,0,111.75402244461188,0,0,0,1307,482,-0.3870023787021637,997,607,-0.5395912528038025,647,658,-0.4357219338417053,0,0,0,0,0,0
2025-03-04 16:44:45.395,159.870646802402,0,112.43021739513253,0,0,0,1305,481,-0.3676774203777313,995,605,-0.5234978199005127,647,658,-0.4276619553565979,0,0,0,0,0,0
2025-03-04 16:44:45.474,159.28934482557892,0,112.24990065240469,0,0,0,1293,482,-0.27718666195869446,989,605,-0.5139120817184448,637,658,-0.4280129373073578,0,0,0,0,0,0
2025-03-04 16:44:45.533,156.59706633575206,0,111.26153267897688,0,0,0,1262,484,-0.3332444727420807,973,610,-0.5345262885093689,628,659,-0.43403175473213196,0,0,0,0,0,0
2025-03-04 16:44:45.603,157.57965435219748,0,112.4075555262238,0,0,0,1264,479,-0.33727821707725525,973,605,-0.53336501121521,628,658,-0.43425703048706055,0,0,0,0,0,0
2025-03-04 16:44:45.668,157.4783360746868,0,112.5208737609765,0,0,0,1265,477,-0.36412155628204346,972,605,-0.5401507019996643,628,658,-0.43507784605026245,0,0,0,0,0,0
2025-03-04 16:44:45.736,157.96121501759512,0,112.7719876596699,0,0,0,1262,477,-0.26177462935447693,968,603,-0.45028460025787354,633,655,-0.3868917226791382,0,0,0,0,0,0
2025-03-04 16:44:45.802,158.83793301462157,0,113.44577924097827,0,0,0,1251,477,-0.2701646089553833,960,601,-0.46037113666534424,632,654,-0.39172598719596863,0,0,0,0,0,0
2025-03-04 16:44:45.872,160.11771435115597,0,114.45316600096906,0,0,0,1246,477,-0.28931480646133423,959,598,-0.47231823205947876,633,653,-0.3975588083267212,0,0,0,0,0,0
2025-03-04 16:44:45.935,160.16369084909905,0,114.46781319115196,0,0,0,1247,476,-0.3703574240207672,958,597,-0.5125582218170166,630,654,-0.4050021171569824,0,0,0,0,0,0
2025-03-04 16:44:46.004,160.136886674626,0,114.5915253341322,0,0,0,1240,476,-0.35863953828811646,955,597,-0.5126492381095886,627,654,-0.40684911608695984,0,0,0,0,0,0
2025-03-04 16:44:46.068,160.17576018116583,0,115.27710943802805,0,0,0,1241,474,-0.36131352186203003,959,596,-0.5136629343032837,629,655,-0.40799954533576965,0,0,0,0,0,0
2025-03-04 16:44:46.139,160.45897132508028,0,115.56878416216283,0,0,0,1258,467,-0.4343581199645996,962,595,-0.5557534098625183,630,655,-0.4277559518814087,0,0,0,0,0,0
2025-03-04 16:44:46.202,160.73531549598403,0,115.84612168321951,0,0,0,1258,467,-0.41177046298980713,962,594,-0.5424392223358154,631,655,-0.42353934049606323,0,0,0,0,0,0
2025-03-04 16:44:46.270,160.54373954140766,0,116.05657572041497,0,0,0,1254,467,-0.36045601963996887,963,594,-0.5119041204452515,633,655,-0.4115155041217804,0,0,0,0,0,0
2025-03-04 16:44:46.334,160.47114707834072,0,116.07968650005232,0,0,0,1254,467,-0.39385682344436646,962,594,-0.5399132966995239,631,655,-0.4208865165710449,0,0,0,0,0,0
2025-03-04 16:44:46.403,158.3036879209956,0,114.65645973139685,0,0,0,1251,468,-0.40995943546295166,958,599,-0.5534942746162415,627,655,-0.42798489332199097,0,0,0,0,0,0
2025-03-04 16:44:46.472,157.3029208587526,0,113.9759673975038,0,0,0,1250,468,-0.39824309945106506,955,601,-0.5481433868408203,622,655,-0.42765453457832336,0,0,0,0,0,0
2025-03-04 16:44:46.535,157.4546114338686,0,113.11378415420641,0,0,0,1244,468,-0.420897513628006,937,603,-0.5518227815628052,606,655,-0.4251452088356018,0,0,0,0,0,0
2025-03-04 16:44:46.607,155.97063092181673,0,111.65762860721294,0,0,0,1239,468,-0.4780479073524475,928,607,-0.5833008885383606,589,655,-0.42784979939460754,0,0,0,0,0,0
2025-03-04 16:44:46.666,154.91942276913758,0,110.7873480449758,0,0,0,1235,468,-0.47647354006767273,923,608,-0.579292893409729,581,655,-0.4269028306007385,0,0,0,0,0,0
2025-03-04 16:44:46.740,154.6894216837919,0,110.7814472498865,0,0,0,1235,468,-0.358446329832077,925,609,-0.4946579337120056,582,655,-0.389986515045166,0,0,0,0,0,0
2025-03-04 16:44:46.798,154.43023083815564,0,110.42893598615693,0,0,0,1238,466,-0.4443033039569855,925,608,-0.5434544086456299,581,654,-0.39840319752693176,0,0,0,0,0,0
2025-03-04 16:44:46.874,154.80992112849853,0,110.70684618583891,0,0,0,1238,466,-0.463802307844162,927,607,-0.5521142482757568,581,654,-0.4031325578689575,0,0,0,0,0,0
2025-03-04 16:44:46.931,155.56410843201778,0,111.75711132845476,0,0,0,1241,465,-0.39347511529922485,931,605,-0.5178987979888916,595,653,-0.4022684693336487,0,0,0,0,0,0
2025-03-04 16:44:47.002,156.72733271798535,0,112.63745122659267,0,0,0,1247,465,-0.3957939147949219,936,603,-0.5194112658500671,601,653,-0.4037955105304718,0,0,0,0,0,0
2025-03-04 16:44:47.069,158.00506656498214,0,113.1162396998221,0,0,0,1268,460,-0.3979875147342682,946,599,-0.5390816926956177,601,653,-0.4214925169944763,0,0,0,0,0,0
2025-03-04 16:44:47.138,159.0752443008708,0,113.92347575104642,0,0,0,1269,459,-0.39035606384277344,949,596,-0.5390874743461609,603,653,-0.4215172231197357,0,0,0,0,0,0
2025-03-04 16:44:47.202,159.67065755749948,0,114.218604077718,0,0,0,1268,459,-0.3810005784034729,951,593,-0.5289574861526489,604,652,-0.4181441366672516,0,0,0,0,0,0
2025-03-04 16:44:47.273,159.27415176239904,0,113.86362751480675,0,0,0,1268,459,-0.4821299612522125,950,593,-0.5315208435058594,606,649,-0.39415696263313293,0,0,0,0,0,0
2025-03-04 16:44:47.334,159.4688620196259,0,114.03425478688551,0,0,0,1267,459,-0.4459933638572693,950,593,-0.5326508283615112,609,650,-0.4053417146205902,0,0,0,0,0,0
2025-03-04 16:44:47.404,158.95058471396538,0,113.85246416060112,0,0,0,1258,461,-0.4020887613296509,948,594,-0.5269433259963989,610,650,-0.4056776463985443,0,0,0,0,0,0
2025-03-04 16:44:47.475,159.04905112654598,0,113.92254314135559,0,0,0,1258,461,-0.3330954313278198,948,594,-0.5027483105659485,611,650,-0.40537139773368835,0,0,0,0,0,0
2025-03-04 16:44:47.534,159.02428628223808,0,113.89178084947767,0,0,0,1258,462,-0.3305264413356781,948,594,-0.4896010458469391,611,650,-0.4001544415950775,0,0,0,0,0,0
2025-03-04 16:44:47.608,158.07785676244015,0,113.40506137210349,0,0,0,1258,462,-0.3394198715686798,947,597,-0.49519139528274536,611,651,-0.4009650647640228,0,0,0,0,0,0
2025-03-04 16:44:47.666,158.07243896517065,0,113.74725894443634,0,0,0,1256,462,-0.37986287474632263,947,597,-0.5016710758209229,617,651,-0.40490612387657166,0,0,0,0,0,0
2025-03-04 16:44:47.743,157.86789072657675,0,113.72278894131584,0,0,0,1255,462,-0.3798598647117615,947,598,-0.5098752379417419,617,651,-0.414903461933136,0,0,0,0,0,0
2025-03-04 16:44:47.800,157.63008077342425,0,113.67265123319787,0,0,0,1254,462,-0.3761846721172333,947,598,-0.5100034475326538,617,651,-0.41486021876335144,0,0,0,0,0,0
2025-03-04 16:44:47.862,157.5903694888225,0,114.07259754883758,0,0,0,1251,463,-0.35793036222457886,947,599,-0.49250346422195435,624,651,-0.4076683223247528,0,0,0,0,0,0
2025-03-04 16:44:47.929,157.7796346993571,0,114.52930572288143,0,0,0,1251,462,-0.3608056604862213,947,599,-0.49498674273490906,629,652,-0.40589776635169983,0,0,0,0,0,0
2025-03-04 16:44:48.008,157.46048856982188,0,114.29474332777144,0,0,0,1248,463,-0.35661688446998596,946,599,-0.497074156999588,626,652,-0.4061581492424011,0,0,0,0,0,0
2025-03-04 16:44:48.069,157.38312929089778,0,114.19674531047919,0,0,0,1247,463,-0.30315497517585754,946,599,-0.47719278931617737,625,652,-0.39841747283935547,0,0,0,0,0,0
2025-03-04 16:44:48.142,157.24236102059717,0,114.1106801374297,0,0,0,1245,463,-0.2911432683467865,946,599,-0.4676211178302765,624,652,-0.3930214047431946,0,0,0,0,0,0
2025-03-04 16:44:48.200,157.10645388409043,0,113.99672983684569,0,0,0,1244,464,-0.29855844378471375,946,599,-0.46795469522476196,623,652,-0.38800039887428284,0,0,0,0,0,0
2025-03-04 16:44:48.277,157.07146588558166,0,113.95534971357823,0,0,0,1242,464,-0.23874253034591675,946,599,-0.4290214776992798,623,652,-0.3710755407810211,0,0,0,0,0,0
2025-03-04 16:44:48.382,156.89715214411544,0,113.70771717205625,0,0,0,1242,464,-0.251811683177948,946,599,-0.4399054944515228,621,652,-0.375418484210968,0,0,0,0,0,0
2025-03-04 16:44:48.480,156.79694628985035,0,113.59349601800817,0,0,0,1243,464,-0.33791854977607727,947,599,-0.48577097058296204,621,652,-0.39545562863349915,0,0,0,0,0,0
2025-03-04 16:44:48.581,156.73474739209198,0,113.59406703263856,0,0,0,1244,463,-0.4027039408683777,948,599,-0.5275989770889282,621,652,-0.41622623801231384,0,0,0,0,0,0
2025-03-04 16:44:48.679,156.49840348042196,0,113.73724095730765,0,0,0,1246,462,-0.3878750801086426,949,599,-0.5160919427871704,625,652,-0.41074198484420776,0,0,0,0,0,0
